Min_hr,Max_hr,Mean_hr,Men_acc_sqrt,Min_acc_x,Max_acc_x,Mean_acc_x,Min_acc_y,Max_acc_y,Mean_acc_y,Min_acc_z,Max_acc_z,Mean_acc_z,Etiquetas binarias,Etiquetas multiclase,ID
68.0,68.0,68.0,0.99,-0.73,-0.7,-0.71,-0.1,-0.07,-0.08,-0.69,-0.67,-0.69,0.0,0.0,29.0
67.0,78.0,69.83,0.99,-0.47,-0.46,-0.46,-0.42,-0.4,-0.41,-0.78,-0.77,-0.78,0.0,5.0,29.0
69.0,80.0,74.2,1.0,-0.0,0.0,0.0,-0.86,-0.85,-0.86,0.51,0.52,0.52,0.0,5.0,29.0
76.0,78.0,76.8,1.0,-0.46,-0.44,-0.45,0.1,0.12,0.11,-0.89,-0.87,-0.88,0.0,0.0,29.0
67.0,71.0,69.67,1.0,-0.63,-0.61,-0.62,-0.15,-0.13,-0.13,-0.78,-0.75,-0.77,0.0,5.0,29.0
64.0,65.0,64.83,1.0,-0.71,0.91,-0.11,0.28,0.62,0.39,-1.04,-0.82,-0.91,0.0,0.0,29.0
71.0,76.0,73.2,1.0,-0.07,-0.06,-0.07,-0.37,-0.36,-0.36,0.93,0.94,0.93,0.0,5.0,29.0
68.0,69.0,68.17,1.0,-0.17,-0.16,-0.17,0.49,0.5,0.49,0.85,0.86,0.86,0.0,5.0,29.0
64.0,67.0,65.67,0.99,-0.58,-0.57,-0.57,-0.46,-0.44,-0.45,-0.69,-0.67,-0.68,0.0,0.0,29.0
64.0,67.0,64.83,0.99,-0.7,-0.69,-0.69,-0.2,-0.18,-0.19,-0.69,-0.68,-0.69,0.0,0.0,29.0
71.0,77.0,75.67,1.0,-0.07,-0.06,-0.07,-0.38,-0.36,-0.37,0.92,0.94,0.93,0.0,5.0,29.0
80.0,81.0,80.33,1.0,-0.44,-0.41,-0.42,-0.8,-0.78,-0.79,-0.45,-0.42,-0.43,0.0,0.0,29.0
68.0,74.0,71.4,1.0,-0.07,-0.06,-0.07,-0.35,-0.34,-0.35,0.93,0.94,0.94,0.0,5.0,29.0
65.0,72.0,68.0,1.0,-0.98,-0.69,-0.88,-0.82,0.38,-0.27,-1.02,0.04,-0.31,0.0,0.0,29.0
69.0,72.0,70.83,1.0,0.02,0.03,0.03,-0.22,-0.22,-0.22,0.97,0.98,0.98,0.0,5.0,29.0
65.0,68.0,67.57,1.0,-0.11,-0.1,-0.1,0.23,0.24,0.24,0.96,0.98,0.97,0.0,5.0,29.0
63.0,68.0,65.17,1.0,-0.03,-0.02,-0.03,0.54,0.55,0.55,-0.84,-0.83,-0.83,0.0,5.0,29.0
69.0,71.0,69.4,1.0,-0.1,-0.09,-0.1,0.23,0.24,0.23,0.97,0.98,0.97,0.0,5.0,29.0
64.0,98.0,91.2,1.0,-0.63,-0.62,-0.62,-0.15,-0.13,-0.14,-0.77,-0.76,-0.76,0.0,0.0,29.0
64.0,68.0,66.33,0.99,-0.58,-0.57,-0.57,-0.46,-0.44,-0.45,-0.69,-0.67,-0.68,0.0,0.0,29.0
64.0,65.0,64.67,0.99,-0.65,-0.64,-0.65,-0.33,-0.32,-0.33,-0.69,-0.67,-0.68,0.0,0.0,29.0
65.0,68.0,67.2,1.0,-0.09,-0.08,-0.08,0.76,0.77,0.77,-0.64,-0.63,-0.63,0.0,0.0,29.0
73.0,78.0,76.2,1.0,0.02,0.03,0.03,-0.22,-0.22,-0.22,0.97,0.98,0.98,0.0,5.0,29.0
73.0,77.0,74.5,1.0,-0.43,-0.42,-0.42,-0.36,-0.35,-0.36,0.82,0.85,0.84,0.0,5.0,29.0
81.0,82.0,81.67,0.99,-0.66,-0.64,-0.65,-0.23,-0.21,-0.22,-0.73,-0.71,-0.72,0.0,0.0,29.0
80.0,81.0,80.6,0.99,-0.66,-0.64,-0.65,-0.23,-0.21,-0.22,-0.73,-0.71,-0.72,0.0,0.0,29.0
67.0,69.0,68.0,1.0,-0.52,-0.51,-0.51,-0.15,-0.13,-0.14,-0.85,-0.84,-0.84,0.0,5.0,29.0
64.0,78.0,68.67,0.99,-0.47,-0.46,-0.47,-0.26,-0.24,-0.25,-0.85,-0.83,-0.84,0.0,5.0,29.0
65.0,65.0,65.0,1.0,-0.85,0.31,-0.25,-1.02,0.59,-0.37,-0.99,0.09,-0.46,0.0,0.0,29.0
67.0,68.0,67.4,0.99,-0.47,-0.46,-0.47,-0.26,-0.24,-0.25,-0.85,-0.83,-0.84,0.0,5.0,29.0
68.0,69.0,68.8,1.0,-0.77,0.02,-0.56,-0.74,0.32,0.02,-1.1,-0.48,-0.78,0.0,5.0,29.0
65.0,67.0,65.4,0.99,-0.58,-0.57,-0.57,-0.46,-0.44,-0.45,-0.69,-0.67,-0.68,0.0,0.0,29.0
77.0,78.0,77.83,1.0,0.02,0.03,0.03,-0.22,-0.22,-0.22,0.97,0.98,0.98,0.0,5.0,29.0
73.0,77.0,76.0,1.0,0.03,0.04,0.03,-0.29,-0.28,-0.28,0.96,0.97,0.96,0.0,5.0,29.0
69.0,72.0,70.8,1.0,-0.46,-0.45,-0.46,-0.24,-0.23,-0.23,-0.86,-0.85,-0.85,0.0,5.0,29.0
64.0,71.0,68.67,1.0,-0.09,-0.07,-0.07,0.61,0.76,0.68,-0.78,-0.64,-0.73,0.0,0.0,29.0
73.0,77.0,74.17,0.99,-0.46,-0.44,-0.45,0.09,0.11,0.1,-0.89,-0.87,-0.88,0.0,5.0,29.0
63.0,65.0,64.6,1.0,-1.22,-0.18,-0.44,-1.01,0.53,-0.66,-0.53,0.29,-0.24,0.0,0.0,29.0
69.0,71.0,69.8,1.0,-0.12,-0.11,-0.11,0.39,0.4,0.4,-0.91,-0.9,-0.91,0.0,0.0,29.0
76.0,77.0,76.2,1.0,-0.44,-0.43,-0.44,-0.45,-0.42,-0.43,0.77,0.8,0.79,0.0,5.0,29.0
74.0,77.0,75.17,1.0,0.02,0.03,0.03,-0.22,-0.22,-0.22,0.97,0.98,0.98,0.0,5.0,29.0
65.0,68.0,67.17,1.0,-0.63,-0.62,-0.62,-0.15,-0.12,-0.13,-0.77,-0.76,-0.76,0.0,0.0,29.0
64.0,65.0,64.86,1.0,-0.21,-0.19,-0.2,0.57,0.61,0.59,0.77,0.8,0.78,0.0,5.0,29.0
64.0,69.0,65.67,0.99,-0.58,-0.56,-0.57,-0.46,-0.44,-0.45,-0.69,-0.67,-0.68,0.0,0.0,29.0
73.0,77.0,74.83,1.0,0.02,0.03,0.03,-0.22,-0.22,-0.22,0.97,0.98,0.98,0.0,5.0,29.0
80.0,81.0,80.5,0.99,-0.66,-0.64,-0.65,-0.22,-0.21,-0.22,-0.72,-0.71,-0.72,0.0,5.0,29.0
69.0,69.0,69.0,1.01,-1.32,0.04,-0.44,-1.14,1.2,0.28,-1.11,1.29,-0.56,0.0,0.0,29.0
77.0,89.0,81.33,1.0,0.02,0.03,0.03,-0.22,-0.22,-0.22,0.97,0.98,0.98,0.0,5.0,29.0
64.0,67.0,66.17,1.0,-0.03,-0.03,-0.03,0.54,0.55,0.55,-0.84,-0.83,-0.83,0.0,5.0,29.0
67.0,68.0,67.83,1.01,-0.83,0.32,-0.23,-1.31,0.36,-0.7,-1.0,0.71,-0.12,0.0,5.0,29.0
68.0,71.0,68.83,1.0,-0.52,-0.51,-0.51,-0.13,-0.11,-0.12,-0.85,-0.84,-0.84,0.0,5.0,29.0
65.0,69.0,67.5,1.0,-0.07,-0.05,-0.06,0.6,0.75,0.67,-0.75,-0.72,-0.74,0.0,0.0,29.0
67.0,71.0,70.0,1.0,-0.63,-0.62,-0.62,-0.15,-0.13,-0.14,-0.77,-0.76,-0.76,0.0,0.0,29.0
67.0,68.0,67.2,1.0,-0.01,0.01,0.0,-0.88,-0.85,-0.86,0.48,0.52,0.51,0.0,5.0,29.0
71.0,87.0,75.5,1.0,-0.42,-0.4,-0.41,-0.13,-0.11,-0.12,-0.9,-0.89,-0.9,0.0,5.0,29.0
77.0,78.0,77.83,0.99,-0.66,-0.64,-0.65,-0.23,-0.21,-0.22,-0.73,-0.71,-0.72,0.0,5.0,29.0
69.0,74.0,71.6,1.0,-0.81,-0.09,-0.49,-1.02,0.42,-0.13,-1.12,-0.02,-0.71,0.0,5.0,29.0
62.0,65.0,63.2,1.0,-0.63,1.14,0.77,-0.35,0.94,0.38,-0.75,0.92,-0.04,0.0,0.0,29.0
65.0,69.0,67.67,1.0,-0.63,-0.62,-0.62,-0.15,-0.12,-0.14,-0.77,-0.75,-0.76,0.0,0.0,29.0
69.0,72.0,70.83,0.99,-0.58,-0.57,-0.58,-0.61,-0.59,-0.6,-0.55,-0.53,-0.54,0.0,5.0,29.0
74.0,82.0,79.0,0.99,-0.43,-0.41,-0.42,-0.81,-0.78,-0.8,-0.43,-0.41,-0.42,0.0,0.0,29.0
71.0,86.0,79.57,1.0,-0.07,-0.06,-0.07,-0.36,-0.35,-0.36,0.93,0.94,0.94,0.0,5.0,29.0
68.0,82.0,71.33,0.99,-0.48,-0.47,-0.47,-0.26,-0.24,-0.25,-0.85,-0.83,-0.84,0.0,5.0,29.0
77.0,78.0,77.33,1.0,0.02,0.03,0.03,-0.22,-0.22,-0.22,0.97,0.99,0.98,0.0,5.0,29.0
74.0,77.0,76.0,1.0,-0.79,-0.11,-0.33,0.35,0.97,0.66,-0.85,-0.28,-0.66,0.0,0.0,29.0
72.0,77.0,74.5,0.99,-0.7,-0.68,-0.69,-0.13,-0.11,-0.12,-0.72,-0.7,-0.71,1.0,3.0,29.0
86.0,87.0,86.5,1.0,-0.43,-0.42,-0.42,0.67,0.68,0.68,-0.6,-0.59,-0.6,1.0,3.0,29.0
69.0,74.0,72.33,1.0,-0.18,-0.17,-0.18,-0.34,-0.33,-0.33,0.92,0.93,0.93,1.0,2.0,29.0
62.0,68.0,64.83,1.0,-0.47,-0.46,-0.47,0.31,0.32,0.32,-0.83,-0.81,-0.82,1.0,1.0,29.0
69.0,73.0,70.0,1.0,-0.1,-0.09,-0.1,0.23,0.24,0.23,0.97,0.98,0.97,1.0,2.0,29.0
65.0,67.0,66.33,0.99,-0.78,-0.59,-0.71,-0.45,-0.04,-0.21,-0.77,-0.57,-0.66,1.0,2.0,29.0
68.0,69.0,68.2,1.0,-0.04,-0.02,-0.03,0.52,0.57,0.55,-0.84,-0.79,-0.83,1.0,1.0,29.0
62.0,69.0,65.83,0.99,-0.7,-0.69,-0.69,-0.2,-0.18,-0.19,-0.69,-0.68,-0.69,1.0,1.0,29.0
65.0,65.0,65.0,1.0,-0.15,-0.14,-0.15,-0.36,-0.35,-0.35,0.92,0.93,0.93,1.0,1.0,29.0
68.0,73.0,71.0,1.0,-0.08,-0.07,-0.08,0.73,0.74,0.73,-0.67,-0.67,-0.67,1.0,1.0,29.0
68.0,80.0,73.5,1.0,-0.14,-0.13,-0.13,0.44,0.45,0.44,-0.89,-0.88,-0.88,1.0,2.0,29.0
68.0,68.0,68.0,1.0,-0.18,-0.17,-0.17,-0.34,-0.33,-0.34,0.92,0.94,0.93,1.0,2.0,29.0
68.0,68.0,68.0,0.99,-0.71,-0.7,-0.71,-0.1,-0.07,-0.08,-0.7,-0.69,-0.69,1.0,1.0,29.0
65.0,67.0,65.8,0.99,-0.7,-0.69,-0.69,-0.2,-0.18,-0.19,-0.69,-0.68,-0.69,1.0,1.0,29.0
68.0,71.0,69.0,1.0,-0.15,-0.14,-0.15,-0.35,-0.35,-0.35,0.92,0.93,0.93,1.0,2.0,29.0
83.0,85.0,83.67,1.0,0.03,0.04,0.03,-0.97,-0.96,-0.96,0.26,0.27,0.26,1.0,3.0,29.0
81.0,86.0,83.6,1.0,-0.46,-0.39,-0.41,0.66,0.7,0.68,-0.63,-0.54,-0.61,1.0,3.0,29.0
67.0,73.0,70.33,0.99,-0.56,-0.55,-0.56,-0.48,-0.46,-0.47,-0.68,-0.67,-0.68,1.0,2.0,29.0
74.0,76.0,75.33,1.0,-0.29,-0.27,-0.28,0.63,0.65,0.64,-0.72,-0.69,-0.71,1.0,2.0,29.0
82.0,86.0,83.8,1.0,-0.41,-0.4,-0.41,0.54,0.55,0.55,-0.73,-0.72,-0.72,1.0,3.0,29.0
65.0,68.0,67.0,0.99,-0.65,-0.64,-0.64,-0.34,-0.32,-0.33,-0.69,-0.67,-0.68,1.0,1.0,29.0
73.0,74.0,73.2,0.99,-0.69,-0.67,-0.68,-0.16,-0.13,-0.15,-0.72,-0.7,-0.71,1.0,2.0,29.0
73.0,77.0,74.67,1.0,-0.3,-0.28,-0.29,0.6,0.61,0.61,-0.74,-0.73,-0.74,1.0,2.0,29.0
68.0,68.0,68.0,0.99,-0.65,-0.64,-0.64,-0.34,-0.32,-0.33,-0.69,-0.68,-0.68,1.0,2.0,29.0
72.0,76.0,74.67,1.0,-0.29,-0.28,-0.28,0.64,0.65,0.64,-0.71,-0.7,-0.71,1.0,2.0,29.0
67.0,68.0,67.83,0.99,-0.7,-0.69,-0.69,-0.2,-0.18,-0.19,-0.69,-0.68,-0.69,1.0,2.0,29.0
76.0,78.0,77.0,1.0,-0.31,-0.29,-0.29,0.61,0.65,0.63,-0.73,-0.7,-0.72,1.0,2.0,29.0
74.0,78.0,76.33,1.0,0.03,0.04,0.03,-0.97,-0.96,-0.96,0.27,0.27,0.27,1.0,3.0,29.0
76.0,78.0,77.0,1.0,-0.3,-0.29,-0.29,0.62,0.63,0.63,-0.72,-0.71,-0.72,1.0,2.0,29.0
83.0,83.0,83.0,1.0,-0.4,-0.38,-0.39,0.44,0.53,0.45,-0.82,-0.79,-0.8,1.0,1.0,29.0
85.0,86.0,85.8,1.0,0.03,0.04,0.04,-0.98,-0.97,-0.98,0.2,0.21,0.2,1.0,3.0,29.0
65.0,68.0,66.17,1.0,-0.09,-0.08,-0.09,0.2,0.21,0.21,0.97,0.98,0.98,1.0,2.0,29.0
78.0,80.0,79.33,1.0,0.02,0.03,0.03,-0.22,-0.21,-0.22,0.98,0.98,0.98,1.0,3.0,29.0
86.0,87.0,86.6,1.0,0.03,0.04,0.04,-0.98,-0.97,-0.98,0.19,0.21,0.2,1.0,3.0,29.0
83.0,86.0,85.0,1.0,-1.34,0.34,-0.17,-0.65,0.92,0.68,-1.1,-0.21,-0.44,1.0,2.0,29.0
74.0,76.0,75.67,0.99,-0.7,-0.69,-0.7,-0.18,-0.17,-0.17,-0.69,-0.68,-0.69,1.0,3.0,29.0
65.0,68.0,65.5,1.0,-0.89,0.06,-0.68,-0.65,0.51,-0.17,-1.11,-0.5,-0.7,1.0,2.0,29.0
65.0,78.0,70.4,0.99,-0.56,-0.55,-0.56,-0.48,-0.46,-0.47,-0.68,-0.67,-0.67,1.0,2.0,29.0
74.0,77.0,75.67,1.0,-0.29,-0.28,-0.29,0.6,0.62,0.61,-0.74,-0.73,-0.73,1.0,2.0,29.0
85.0,89.0,86.0,1.0,0.03,0.04,0.03,-0.97,-0.96,-0.96,0.26,0.27,0.26,1.0,3.0,29.0
74.0,74.0,74.0,1.0,-0.29,-0.28,-0.28,0.64,0.65,0.64,-0.71,-0.71,-0.71,1.0,2.0,29.0
69.0,74.0,71.33,0.99,-0.56,-0.55,-0.56,-0.48,-0.46,-0.47,-0.68,-0.67,-0.68,1.0,1.0,29.0
83.0,83.0,83.0,0.99,-0.43,-0.41,-0.43,-0.8,-0.78,-0.79,-0.44,-0.42,-0.43,1.0,2.0,29.0
72.0,72.0,72.0,0.99,-0.69,-0.67,-0.68,-0.16,-0.12,-0.14,-0.72,-0.7,-0.71,1.0,2.0,29.0
77.0,80.0,78.6,1.0,0.02,0.03,0.03,-0.22,-0.21,-0.22,0.97,0.98,0.98,1.0,1.0,29.0
78.0,87.0,82.4,1.0,-0.08,-0.07,-0.07,0.59,0.6,0.6,-0.8,-0.79,-0.79,1.0,1.0,29.0
72.0,73.0,72.2,1.0,-0.19,-0.13,-0.15,0.45,0.53,0.49,-0.88,-0.82,-0.85,1.0,2.0,29.0
74.0,77.0,76.5,1.0,-0.29,-0.28,-0.29,0.65,0.66,0.65,-0.7,-0.69,-0.7,1.0,2.0,29.0
69.0,74.0,72.17,1.0,-0.3,-0.29,-0.29,0.62,0.63,0.63,-0.72,-0.71,-0.72,1.0,2.0,29.0
78.0,83.0,80.33,0.99,-0.45,-0.43,-0.44,-0.78,-0.77,-0.78,-0.45,-0.43,-0.44,1.0,2.0,29.0
77.0,81.0,78.17,0.99,-0.66,-0.64,-0.65,-0.23,-0.21,-0.22,-0.73,-0.71,-0.72,1.0,1.0,29.0
69.0,74.0,71.83,1.0,-0.46,-0.44,-0.45,0.1,0.11,0.11,-0.89,-0.87,-0.88,1.0,1.0,29.0
72.0,74.0,73.5,1.0,-0.11,-0.1,-0.1,0.69,0.7,0.69,-0.71,-0.71,-0.71,1.0,2.0,29.0
64.0,68.0,66.0,1.0,-0.16,-0.15,-0.16,-0.35,-0.34,-0.35,0.92,0.93,0.93,1.0,2.0,29.0
65.0,65.0,65.0,0.99,-0.56,-0.55,-0.56,-0.48,-0.46,-0.47,-0.68,-0.67,-0.68,1.0,1.0,29.0
74.0,87.0,82.0,1.0,-0.45,-0.41,-0.42,0.66,0.7,0.68,-0.61,-0.58,-0.6,1.0,3.0,29.0
65.0,68.0,67.17,1.0,-0.05,-0.05,-0.05,0.62,0.63,0.63,-0.78,-0.77,-0.77,1.0,1.0,29.0
81.0,85.0,83.0,1.0,-0.39,-0.38,-0.39,0.44,0.45,0.45,-0.81,-0.79,-0.8,1.0,1.0,29.0
63.0,63.0,63.0,0.99,-0.07,-0.06,-0.07,-0.35,-0.32,-0.34,-0.94,-0.92,-0.93,0.0,0.0,20.0
62.0,62.0,62.0,0.99,-0.06,-0.05,-0.06,-0.36,-0.35,-0.36,-0.93,-0.92,-0.93,0.0,0.0,20.0
61.0,62.0,61.5,0.99,-0.06,-0.05,-0.06,-0.36,-0.35,-0.35,-0.93,-0.92,-0.93,0.0,5.0,20.0
64.0,64.0,64.0,1.0,-0.13,-0.09,-0.11,0.08,0.49,0.23,-1.01,-0.88,-0.96,0.0,5.0,20.0
68.0,71.0,69.43,0.99,-0.13,-0.11,-0.12,0.17,0.3,0.24,-0.97,-0.94,-0.96,0.0,5.0,20.0
59.0,59.0,59.0,0.99,-0.07,-0.06,-0.06,-0.36,-0.35,-0.35,-0.93,-0.92,-0.93,0.0,0.0,20.0
71.0,75.0,73.33,0.99,-0.12,-0.11,-0.11,0.24,0.25,0.25,-0.96,-0.94,-0.96,0.0,5.0,20.0
60.0,67.0,64.0,0.99,-0.1,-0.09,-0.1,-0.44,-0.41,-0.44,-0.89,-0.88,-0.88,0.0,0.0,20.0
64.0,65.0,64.33,0.99,-0.11,-0.1,-0.11,-0.18,-0.18,-0.18,-0.97,-0.97,-0.97,0.0,5.0,20.0
65.0,67.0,66.0,0.99,-0.04,-0.03,-0.04,-0.44,-0.43,-0.43,-0.9,-0.89,-0.89,0.0,5.0,20.0
65.0,65.0,65.0,0.99,-0.11,-0.11,-0.11,-0.2,-0.19,-0.2,-0.97,-0.97,-0.97,0.0,5.0,20.0
64.0,68.0,65.17,0.99,-0.1,-0.09,-0.1,-0.41,-0.39,-0.4,-0.91,-0.9,-0.9,0.0,0.0,20.0
71.0,74.0,72.8,0.99,-0.12,-0.11,-0.12,0.24,0.25,0.24,-0.96,-0.96,-0.96,0.0,5.0,20.0
64.0,65.0,64.33,0.99,-0.16,-0.15,-0.15,-0.16,-0.14,-0.15,-0.97,-0.97,-0.97,0.0,5.0,20.0
70.0,73.0,72.0,0.99,-0.13,-0.12,-0.13,-0.4,-0.39,-0.39,-0.91,-0.9,-0.9,0.0,0.0,20.0
69.0,70.0,69.6,0.99,-0.13,-0.12,-0.12,-0.41,-0.4,-0.41,-0.9,-0.89,-0.9,0.0,0.0,20.0
62.0,62.0,62.0,0.99,-0.06,-0.05,-0.05,-0.12,-0.08,-0.11,-0.99,-0.98,-0.99,0.0,0.0,20.0
72.0,73.0,72.6,0.99,-0.12,-0.11,-0.11,0.25,0.25,0.25,-0.96,-0.95,-0.96,0.0,5.0,20.0
69.0,74.0,71.33,1.0,-0.12,-0.11,-0.11,0.25,0.25,0.25,-0.96,-0.95,-0.96,0.0,5.0,20.0
64.0,64.0,64.0,1.0,-0.11,-0.11,-0.11,0.22,0.22,0.22,-0.97,-0.96,-0.96,0.0,5.0,20.0
73.0,74.0,73.8,0.99,-0.12,-0.11,-0.11,0.24,0.25,0.25,-0.96,-0.95,-0.96,0.0,5.0,20.0
63.0,72.0,66.33,1.0,-0.11,-0.11,-0.11,0.22,0.22,0.22,-0.97,-0.96,-0.96,0.0,5.0,20.0
63.0,65.0,63.67,0.99,-0.16,-0.15,-0.15,-0.16,-0.15,-0.15,-0.97,-0.97,-0.97,0.0,5.0,20.0
61.0,62.0,61.33,0.99,-0.07,-0.06,-0.06,-0.35,-0.34,-0.34,-0.93,-0.93,-0.93,0.0,0.0,20.0
63.0,63.0,63.0,0.99,-0.4,0.11,-0.1,-0.84,-0.01,-0.39,-1.11,-0.38,-0.9,0.0,0.0,20.0
59.0,65.0,61.2,0.99,-0.07,-0.06,-0.06,-0.36,-0.34,-0.34,-0.93,-0.92,-0.93,0.0,0.0,20.0
65.0,68.0,66.43,0.99,-0.04,-0.03,-0.04,-0.38,-0.38,-0.38,-0.92,-0.91,-0.92,1.0,2.0,20.0
67.0,68.0,67.83,0.99,-0.1,-0.09,-0.1,-0.12,-0.11,-0.11,-0.99,-0.98,-0.98,1.0,1.0,20.0
66.0,68.0,67.5,0.99,-0.11,-0.1,-0.1,-0.21,-0.2,-0.21,-0.97,-0.96,-0.97,1.0,1.0,20.0
63.0,63.0,63.0,0.99,-0.06,-0.05,-0.06,-0.36,-0.35,-0.36,-0.93,-0.92,-0.93,1.0,2.0,20.0
66.0,69.0,67.0,0.99,-0.05,-0.04,-0.04,-0.38,-0.37,-0.38,-0.92,-0.91,-0.92,1.0,2.0,20.0
64.0,64.0,64.0,0.99,-0.06,-0.05,-0.06,-0.36,-0.35,-0.36,-0.93,-0.92,-0.92,1.0,2.0,20.0
63.0,68.0,65.33,0.99,-0.1,-0.08,-0.09,-0.15,-0.11,-0.11,-1.0,-0.98,-0.98,1.0,1.0,20.0
64.0,64.0,64.0,0.99,-0.04,-0.04,-0.04,-0.39,-0.38,-0.38,-0.92,-0.91,-0.92,1.0,3.0,20.0
61.0,62.0,61.83,0.99,-0.06,-0.05,-0.06,-0.36,-0.35,-0.35,-0.93,-0.92,-0.93,1.0,2.0,20.0
66.0,68.0,67.4,0.99,-0.04,-0.04,-0.04,-0.38,-0.33,-0.38,-0.93,-0.91,-0.92,1.0,2.0,20.0
69.0,74.0,70.83,0.99,0.07,0.08,0.07,-0.57,-0.56,-0.56,-0.82,-0.81,-0.81,1.0,2.0,20.0
67.0,68.0,67.8,0.99,-0.11,-0.09,-0.1,-0.11,-0.1,-0.11,-0.99,-0.98,-0.98,1.0,1.0,20.0
66.0,69.0,67.0,0.99,-0.19,0.06,-0.1,-0.38,-0.06,-0.19,-1.03,-0.91,-0.97,1.0,1.0,20.0
62.0,63.0,62.5,0.99,-0.06,-0.05,-0.06,-0.36,-0.35,-0.35,-0.93,-0.92,-0.93,1.0,2.0,20.0
64.0,66.0,65.67,0.99,-0.06,-0.05,-0.06,-0.36,-0.35,-0.36,-0.93,-0.92,-0.92,1.0,2.0,20.0
67.0,67.0,67.0,0.99,-0.06,-0.05,-0.06,-0.36,-0.35,-0.36,-0.93,-0.92,-0.92,1.0,2.0,20.0
68.0,69.0,68.17,1.0,-0.18,-0.17,-0.17,0.51,0.51,0.51,-0.84,-0.84,-0.84,1.0,1.0,20.0
62.0,62.0,62.0,0.99,-0.06,-0.05,-0.06,-0.36,-0.35,-0.35,-0.93,-0.92,-0.93,1.0,2.0,20.0
63.0,63.0,63.0,0.99,-0.06,-0.05,-0.06,-0.36,-0.35,-0.35,-0.93,-0.92,-0.93,1.0,2.0,20.0
72.0,77.0,74.5,0.99,-0.11,-0.1,-0.1,-0.21,-0.2,-0.2,-0.97,-0.97,-0.97,1.0,1.0,20.0
65.0,66.0,65.67,0.99,-0.06,-0.05,-0.06,-0.36,-0.35,-0.36,-0.93,-0.92,-0.92,1.0,2.0,20.0
65.0,66.0,65.83,0.99,-0.04,-0.03,-0.04,-0.38,-0.37,-0.38,-0.92,-0.91,-0.92,1.0,2.0,20.0
62.0,63.0,62.33,0.99,-0.06,-0.05,-0.06,-0.36,-0.35,-0.36,-0.93,-0.92,-0.93,1.0,2.0,20.0
61.0,66.0,63.33,0.99,-0.1,-0.1,-0.1,-0.07,-0.05,-0.07,-0.99,-0.98,-0.99,1.0,1.0,20.0
65.0,67.0,65.5,0.99,-0.04,-0.04,-0.04,-0.39,-0.38,-0.38,-0.92,-0.91,-0.92,1.0,3.0,20.0
67.0,71.0,69.5,1.0,0.55,0.56,0.56,-0.36,-0.35,-0.36,-0.76,-0.75,-0.75,0.0,5.0,18.0
78.0,82.0,79.6,1.0,0.09,0.1,0.1,-0.66,-0.65,-0.66,-0.76,-0.75,-0.75,0.0,5.0,18.0
70.0,71.0,70.4,1.0,0.48,0.73,0.49,-0.93,0.04,-0.03,-0.88,0.11,-0.85,0.0,5.0,18.0
81.0,82.0,81.67,1.0,0.36,0.36,0.36,-0.9,-0.89,-0.9,0.26,0.27,0.26,0.0,5.0,18.0
83.0,89.0,84.17,1.0,0.22,0.23,0.23,-0.84,-0.83,-0.84,0.5,0.51,0.5,0.0,5.0,18.0
87.0,93.0,89.6,1.0,0.25,0.25,0.25,-0.73,-0.72,-0.72,-0.65,-0.64,-0.65,0.0,5.0,18.0
68.0,70.0,69.0,1.0,0.55,0.56,0.56,-0.36,-0.35,-0.36,-0.76,-0.75,-0.75,0.0,5.0,18.0
78.0,82.0,80.17,1.0,0.25,0.25,0.25,-0.73,-0.72,-0.73,-0.65,-0.64,-0.64,0.0,5.0,18.0
79.0,87.0,83.0,1.0,0.25,0.25,0.25,-0.73,-0.72,-0.73,-0.65,-0.64,-0.64,0.0,5.0,18.0
82.0,83.0,82.4,1.0,0.43,0.46,0.44,-0.27,-0.23,-0.26,-0.87,-0.85,-0.86,0.0,0.0,18.0
82.0,84.0,83.0,1.0,0.25,0.26,0.25,-0.73,-0.72,-0.73,-0.65,-0.64,-0.64,0.0,5.0,18.0
74.0,77.0,75.2,1.0,0.37,0.37,0.37,-0.91,-0.9,-0.91,0.2,0.22,0.21,0.0,5.0,18.0
66.0,66.0,66.0,1.0,0.34,0.35,0.35,-0.51,-0.5,-0.51,0.78,0.79,0.79,0.0,0.0,18.0
91.0,94.0,92.33,1.0,0.25,0.25,0.25,-0.73,-0.72,-0.73,-0.65,-0.64,-0.65,0.0,5.0,18.0
70.0,71.0,70.83,1.0,0.48,0.49,0.48,0.02,0.04,0.03,-0.88,-0.87,-0.88,0.0,5.0,18.0
73.0,77.0,73.83,1.0,0.55,0.55,0.55,-0.36,-0.35,-0.35,-0.76,-0.75,-0.76,0.0,5.0,18.0
83.0,86.0,85.17,1.0,0.25,0.26,0.25,-0.84,-0.83,-0.83,0.49,0.5,0.49,0.0,5.0,18.0
77.0,86.0,81.33,1.0,0.36,0.37,0.36,-0.9,-0.89,-0.89,0.25,0.28,0.27,0.0,5.0,18.0
86.0,93.0,89.17,1.0,0.25,0.25,0.25,-0.73,-0.72,-0.73,-0.65,-0.64,-0.65,0.0,5.0,18.0
84.0,95.0,87.2,1.0,-0.18,-0.14,-0.17,0.84,0.96,0.86,-0.5,-0.35,-0.48,0.0,0.0,18.0
79.0,85.0,82.17,1.0,0.36,0.37,0.36,-0.89,-0.89,-0.89,0.27,0.28,0.28,0.0,5.0,18.0
83.0,86.0,84.6,1.0,0.21,0.22,0.21,0.41,0.42,0.42,-0.89,-0.88,-0.89,0.0,5.0,18.0
79.0,84.0,81.83,1.0,0.36,0.36,0.36,-0.9,-0.89,-0.9,0.26,0.27,0.26,0.0,5.0,18.0
86.0,92.0,89.2,1.0,0.09,0.1,0.1,-0.67,-0.65,-0.66,-0.75,-0.75,-0.75,0.0,5.0,18.0
75.0,77.0,75.86,1.0,-0.65,0.53,0.04,-1.05,0.42,-0.66,-0.65,1.0,0.59,0.0,5.0,18.0
79.0,84.0,81.33,1.0,0.21,0.22,0.21,0.41,0.42,0.42,-0.89,-0.88,-0.89,0.0,5.0,18.0
81.0,82.0,81.2,1.0,0.36,0.36,0.36,-0.9,-0.9,-0.9,0.25,0.27,0.26,0.0,5.0,18.0
84.0,94.0,86.17,1.0,0.25,0.26,0.26,-0.83,-0.83,-0.83,0.49,0.5,0.5,0.0,5.0,18.0
65.0,70.0,67.83,1.0,0.34,0.35,0.35,-0.51,-0.51,-0.51,0.78,0.79,0.79,0.0,5.0,18.0
83.0,86.0,85.17,1.0,0.25,0.26,0.26,-0.83,-0.83,-0.83,0.49,0.5,0.5,0.0,5.0,18.0
75.0,78.0,76.17,1.0,0.25,0.25,0.25,-0.73,-0.72,-0.73,-0.65,-0.64,-0.65,0.0,5.0,18.0
86.0,88.0,86.83,1.0,0.58,0.59,0.58,-0.59,-0.58,-0.58,-0.57,-0.56,-0.57,0.0,5.0,18.0
82.0,90.0,85.67,1.03,-0.13,1.17,0.44,-1.13,0.43,-0.31,-1.66,0.58,-0.79,0.0,0.0,18.0
82.0,86.0,82.83,1.0,0.25,0.26,0.25,-0.73,-0.72,-0.73,-0.65,-0.64,-0.64,0.0,5.0,18.0
74.0,77.0,75.4,1.0,0.55,0.55,0.55,-0.36,-0.35,-0.35,-0.76,-0.75,-0.76,0.0,5.0,18.0
81.0,84.0,83.0,1.01,-0.24,0.97,0.41,-1.22,0.8,-0.55,-1.13,-0.14,-0.66,0.0,0.0,18.0
81.0,85.0,82.4,1.0,0.42,0.46,0.44,-0.26,-0.23,-0.25,-0.87,-0.85,-0.86,0.0,0.0,18.0
77.0,84.0,79.43,1.0,0.36,0.36,0.36,-0.9,-0.89,-0.9,0.26,0.27,0.26,0.0,5.0,18.0
84.0,86.0,85.2,1.0,0.25,0.26,0.26,-0.73,-0.72,-0.73,-0.64,-0.63,-0.64,1.0,2.0,18.0
68.0,76.0,70.67,1.0,0.35,0.35,0.35,-0.51,-0.5,-0.51,0.78,0.79,0.79,1.0,2.0,18.0
71.0,76.0,73.33,1.0,0.36,0.36,0.36,-0.51,-0.5,-0.5,0.78,0.79,0.79,1.0,2.0,18.0
78.0,95.0,83.17,1.0,0.25,0.26,0.25,-0.73,-0.73,-0.73,-0.64,-0.63,-0.64,1.0,2.0,18.0
84.0,87.0,85.67,1.0,0.26,0.27,0.26,-0.76,-0.74,-0.75,-0.62,-0.6,-0.61,1.0,3.0,18.0
84.0,86.0,85.4,1.0,0.26,0.26,0.26,-0.74,-0.73,-0.73,-0.64,-0.63,-0.63,1.0,3.0,18.0
82.0,83.0,82.6,1.0,0.36,0.36,0.36,-0.51,-0.5,-0.5,0.78,0.79,0.78,1.0,2.0,18.0
71.0,73.0,72.0,1.0,0.54,0.56,0.55,-0.37,-0.33,-0.35,-0.77,-0.75,-0.76,1.0,1.0,18.0
86.0,86.0,86.0,1.0,0.26,0.26,0.26,-0.74,-0.73,-0.73,-0.64,-0.63,-0.64,1.0,2.0,18.0
82.0,85.0,83.0,1.0,0.34,0.34,0.34,-0.93,-0.92,-0.92,0.19,0.2,0.2,1.0,3.0,18.0
85.0,86.0,85.2,1.0,-0.12,0.38,0.23,-0.87,0.34,-0.65,-1.05,-0.39,-0.64,1.0,3.0,18.0
71.0,77.0,74.0,1.0,0.35,0.35,0.35,-0.51,-0.5,-0.5,0.79,0.79,0.79,1.0,3.0,18.0
82.0,85.0,83.83,1.0,0.34,0.34,0.34,-0.93,-0.92,-0.92,0.19,0.2,0.2,1.0,3.0,18.0
81.0,85.0,82.8,1.0,0.34,0.34,0.34,-0.93,-0.92,-0.92,0.19,0.2,0.2,1.0,3.0,18.0
68.0,71.0,69.5,1.0,0.35,0.35,0.35,-0.51,-0.5,-0.51,0.78,0.79,0.79,1.0,1.0,18.0
78.0,83.0,81.5,1.0,0.36,0.36,0.36,-0.51,-0.5,-0.5,0.78,0.79,0.78,1.0,2.0,18.0
79.0,83.0,81.2,1.0,0.35,0.36,0.35,-0.51,-0.5,-0.5,0.78,0.79,0.79,1.0,3.0,18.0
84.0,86.0,85.57,1.0,0.34,0.34,0.34,-0.92,-0.92,-0.92,0.19,0.21,0.2,1.0,2.0,18.0
79.0,84.0,81.33,1.0,0.35,0.36,0.35,-0.51,-0.5,-0.5,0.78,0.79,0.79,1.0,3.0,18.0
77.0,78.0,77.33,1.0,-0.09,-0.06,-0.07,-0.46,-0.4,-0.45,0.87,0.92,0.89,1.0,1.0,18.0
81.0,85.0,82.5,1.0,0.25,0.26,0.26,-0.8,-0.79,-0.8,-0.56,-0.55,-0.55,1.0,3.0,18.0
68.0,84.0,73.83,1.0,0.35,0.35,0.35,-0.51,-0.5,-0.51,0.78,0.79,0.79,1.0,2.0,18.0
84.0,86.0,84.83,1.0,0.34,0.34,0.34,-0.93,-0.92,-0.92,0.19,0.2,0.19,1.0,2.0,18.0
84.0,86.0,85.0,1.0,0.34,0.34,0.34,-0.92,-0.92,-0.92,0.19,0.2,0.2,1.0,2.0,18.0
80.0,82.0,81.5,1.0,0.25,0.26,0.26,-0.8,-0.79,-0.8,-0.56,-0.54,-0.55,1.0,3.0,18.0
63.0,66.0,64.33,1.0,-0.14,-0.13,-0.13,-0.42,-0.41,-0.42,-0.91,-0.89,-0.9,0.0,0.0,15.0
73.0,75.0,73.8,1.0,-0.84,-0.13,-0.31,0.27,0.9,0.57,-0.87,-0.13,-0.73,0.0,0.0,15.0
60.0,64.0,61.83,1.0,-0.14,-0.12,-0.12,-0.71,-0.7,-0.71,-0.7,-0.68,-0.69,0.0,0.0,15.0
58.0,58.0,58.0,1.0,0.08,0.08,0.08,-0.48,-0.47,-0.48,-0.88,-0.87,-0.88,0.0,5.0,15.0
83.0,86.0,85.5,1.0,-1.15,-0.17,-0.69,-1.33,0.65,-0.09,-0.89,0.2,-0.48,0.0,0.0,15.0
64.0,66.0,64.67,1.0,-0.14,-0.13,-0.13,-0.42,-0.4,-0.41,-0.91,-0.9,-0.9,0.0,0.0,15.0
57.0,58.0,57.33,1.0,-0.6,-0.58,-0.59,0.16,0.18,0.17,-0.8,-0.77,-0.79,0.0,0.0,15.0
61.0,64.0,62.0,1.0,-0.24,-0.23,-0.24,-0.57,-0.55,-0.55,-0.8,-0.79,-0.8,0.0,0.0,15.0
57.0,57.0,57.0,1.0,0.08,0.09,0.08,-0.46,-0.45,-0.46,-0.89,-0.88,-0.88,0.0,5.0,15.0
54.0,55.0,54.4,1.0,0.08,0.09,0.08,-0.45,-0.44,-0.45,-0.89,-0.89,-0.89,0.0,5.0,15.0
58.0,59.0,58.33,1.0,0.08,0.09,0.08,-0.48,-0.47,-0.47,-0.88,-0.87,-0.88,0.0,5.0,15.0
55.0,56.0,55.83,1.0,0.08,0.09,0.08,-0.46,-0.45,-0.45,-0.9,-0.87,-0.89,0.0,5.0,15.0
58.0,59.0,58.67,1.0,-0.49,-0.48,-0.48,0.27,0.27,0.27,-0.84,-0.83,-0.83,0.0,5.0,15.0
57.0,58.0,57.33,1.0,-0.89,0.04,-0.12,-1.21,0.06,-0.74,-0.95,-0.04,-0.63,0.0,0.0,15.0
56.0,57.0,56.4,1.0,-0.61,-0.58,-0.59,0.17,0.18,0.17,-0.8,-0.77,-0.79,0.0,0.0,15.0
59.0,59.0,59.0,1.0,0.07,0.08,0.08,-0.48,-0.47,-0.48,-0.88,-0.87,-0.88,0.0,5.0,15.0
52.0,53.0,52.17,1.0,-0.05,-0.04,-0.05,-0.58,-0.57,-0.58,-0.82,-0.81,-0.82,0.0,5.0,15.0
58.0,60.0,59.0,1.0,-0.24,-0.23,-0.23,-0.56,-0.54,-0.55,-0.8,-0.79,-0.8,0.0,0.0,15.0
59.0,60.0,59.33,1.0,0.08,0.08,0.08,-0.48,-0.47,-0.48,-0.88,-0.87,-0.88,0.0,5.0,15.0
58.0,59.0,58.5,1.0,-0.69,-0.67,-0.68,-0.21,-0.18,-0.19,-0.72,-0.7,-0.71,0.0,0.0,15.0
52.0,63.0,58.67,1.0,-0.07,-0.04,-0.06,-0.23,-0.2,-0.2,-0.99,-0.96,-0.98,0.0,0.0,15.0
60.0,65.0,61.0,1.0,-0.25,-0.24,-0.24,-0.56,-0.54,-0.55,-0.8,-0.79,-0.8,0.0,0.0,15.0
70.0,77.0,71.67,1.0,-0.27,-0.26,-0.27,0.46,0.49,0.48,-0.85,-0.84,-0.84,0.0,0.0,15.0
64.0,66.0,65.0,1.0,-0.13,-0.13,-0.13,-0.42,-0.4,-0.41,-0.91,-0.9,-0.9,0.0,0.0,15.0
73.0,77.0,74.0,1.0,-0.31,-0.29,-0.3,0.57,0.59,0.58,-0.77,-0.75,-0.76,0.0,0.0,15.0
62.0,70.0,67.17,1.0,-0.14,-0.11,-0.12,-0.71,-0.7,-0.71,-0.7,-0.68,-0.69,0.0,0.0,15.0
68.0,73.0,70.33,1.0,-0.91,-0.26,-0.37,-0.98,-0.03,-0.77,0.33,0.92,0.48,0.0,0.0,15.0
56.0,58.0,57.17,1.0,0.08,0.08,0.08,-0.48,-0.47,-0.48,-0.88,-0.87,-0.88,0.0,5.0,15.0
57.0,58.0,57.33,1.0,0.08,0.09,0.08,-0.47,-0.46,-0.47,-0.88,-0.87,-0.88,0.0,5.0,15.0
57.0,59.0,58.17,1.0,-0.23,-0.22,-0.23,-0.56,-0.54,-0.55,-0.81,-0.8,-0.8,0.0,0.0,15.0
62.0,70.0,65.0,1.0,-0.04,-0.02,-0.03,-0.58,-0.56,-0.57,-0.83,-0.81,-0.82,0.0,5.0,15.0
58.0,59.0,58.33,1.01,-0.85,0.1,-0.11,-1.66,1.34,-0.23,-1.14,0.02,-0.82,0.0,5.0,15.0
58.0,62.0,59.33,1.0,-0.49,-0.48,-0.48,0.27,0.27,0.27,-0.84,-0.83,-0.83,0.0,5.0,15.0
57.0,60.0,59.17,1.0,-0.25,-0.23,-0.23,-0.56,-0.54,-0.55,-0.81,-0.79,-0.8,0.0,0.0,15.0
61.0,63.0,62.33,1.0,-0.25,-0.24,-0.24,-0.56,-0.54,-0.55,-0.81,-0.79,-0.8,0.0,0.0,15.0
68.0,70.0,68.33,1.0,-0.52,-0.34,-0.45,-0.92,-0.73,-0.84,0.19,0.6,0.3,0.0,0.0,15.0
55.0,60.0,57.8,1.0,-0.24,-0.21,-0.23,-0.56,-0.54,-0.55,-0.81,-0.79,-0.8,0.0,0.0,15.0
59.0,61.0,60.17,1.0,-0.49,-0.48,-0.48,0.27,0.27,0.27,-0.84,-0.83,-0.83,0.0,5.0,15.0
71.0,73.0,71.83,1.01,-0.53,0.18,-0.08,-0.94,0.84,0.05,-1.16,0.71,-0.59,1.0,1.0,15.0
68.0,72.0,69.6,1.0,-0.02,-0.01,-0.02,0.06,0.06,0.06,-1.0,-1.0,-1.0,1.0,2.0,15.0
51.0,61.0,53.5,1.0,-0.19,-0.18,-0.18,0.33,0.34,0.34,-0.93,-0.92,-0.92,1.0,3.0,15.0
51.0,58.0,53.83,1.0,-0.06,-0.03,-0.06,-0.21,-0.2,-0.2,-0.99,-0.97,-0.98,1.0,2.0,15.0
64.0,67.0,64.67,1.0,-0.36,-0.28,-0.3,-0.21,-0.15,-0.18,-0.96,-0.91,-0.94,1.0,3.0,15.0
51.0,57.0,53.0,1.0,0.01,0.02,0.01,0.96,0.97,0.97,0.24,0.26,0.25,1.0,2.0,15.0
54.0,55.0,54.5,1.0,-0.18,-0.17,-0.18,0.34,0.35,0.35,-0.93,-0.92,-0.92,1.0,2.0,15.0
66.0,67.0,66.8,1.0,-0.3,-0.29,-0.29,-0.18,-0.17,-0.17,-0.95,-0.94,-0.94,1.0,3.0,15.0
67.0,70.0,68.57,1.0,0.15,0.16,0.15,-0.82,-0.81,-0.82,0.55,0.56,0.55,1.0,2.0,15.0
61.0,64.0,61.83,1.0,0.04,0.05,0.05,-0.78,-0.76,-0.77,0.63,0.65,0.64,1.0,2.0,15.0
67.0,71.0,69.0,1.0,-0.33,-0.29,-0.3,-0.21,-0.18,-0.19,-0.95,-0.92,-0.94,1.0,3.0,15.0
53.0,57.0,54.83,1.0,-0.4,-0.39,-0.4,0.2,0.21,0.21,-0.9,-0.89,-0.9,1.0,3.0,15.0
54.0,56.0,54.6,1.0,0.07,0.1,0.08,-0.46,-0.43,-0.44,-0.9,-0.88,-0.89,1.0,2.0,15.0
53.0,55.0,54.0,1.0,0.07,0.09,0.08,-0.46,-0.44,-0.44,-0.9,-0.88,-0.89,1.0,2.0,15.0
59.0,64.0,61.5,1.0,0.05,0.05,0.05,-0.78,-0.77,-0.77,0.62,0.63,0.63,1.0,1.0,15.0
59.0,63.0,62.0,1.0,-0.25,-0.24,-0.24,-0.59,-0.59,-0.59,-0.78,-0.77,-0.77,1.0,2.0,15.0
64.0,67.0,65.2,1.0,-0.07,-0.06,-0.06,-0.51,-0.49,-0.5,-0.87,-0.86,-0.86,1.0,3.0,15.0
65.0,68.0,66.5,1.0,-0.31,-0.3,-0.3,-0.19,-0.19,-0.19,-0.94,-0.93,-0.94,1.0,2.0,15.0
64.0,65.0,64.83,1.0,-0.12,-0.11,-0.11,-0.56,-0.55,-0.56,-0.83,-0.82,-0.82,1.0,3.0,15.0
59.0,68.0,63.5,1.0,0.0,0.02,0.01,-0.3,-0.28,-0.29,-0.96,-0.95,-0.96,1.0,2.0,15.0
62.0,64.0,62.8,1.0,-0.25,-0.25,-0.25,-0.59,-0.55,-0.58,-0.8,-0.77,-0.78,1.0,2.0,15.0
67.0,68.0,67.4,1.0,-0.33,-0.32,-0.32,-0.18,-0.18,-0.18,-0.93,-0.93,-0.93,1.0,2.0,15.0
55.0,56.0,55.33,1.0,-0.07,-0.06,-0.06,-0.21,-0.2,-0.2,-0.98,-0.97,-0.98,1.0,2.0,15.0
54.0,56.0,54.83,1.0,0.08,0.09,0.08,-0.45,-0.44,-0.44,-0.9,-0.88,-0.89,1.0,2.0,15.0
60.0,66.0,62.2,1.0,-0.25,-0.24,-0.24,-0.59,-0.58,-0.59,-0.77,-0.77,-0.77,1.0,2.0,15.0
70.0,71.0,70.4,1.0,0.08,0.09,0.08,0.3,0.3,0.3,-0.96,-0.95,-0.95,1.0,1.0,15.0
53.0,79.0,60.33,1.0,-0.18,-0.17,-0.18,0.34,0.36,0.35,-0.93,-0.91,-0.92,1.0,2.0,15.0
65.0,67.0,66.0,1.0,-0.3,-0.29,-0.29,-0.2,-0.17,-0.17,-0.95,-0.93,-0.94,1.0,3.0,15.0
65.0,67.0,65.67,1.0,-0.3,-0.29,-0.29,-0.18,-0.17,-0.17,-0.95,-0.94,-0.94,1.0,3.0,15.0
54.0,55.0,54.2,1.0,-0.4,-0.39,-0.4,0.2,0.21,0.2,-0.9,-0.89,-0.9,1.0,2.0,15.0
64.0,68.0,65.5,1.0,-0.3,-0.29,-0.29,-0.17,-0.17,-0.17,-0.95,-0.94,-0.94,1.0,3.0,15.0
52.0,60.0,56.14,1.0,-0.4,-0.39,-0.4,0.22,0.23,0.22,-0.9,-0.89,-0.89,1.0,2.0,15.0
66.0,67.0,66.83,1.0,-0.06,-0.05,-0.06,-0.66,-0.65,-0.66,-0.75,-0.75,-0.75,1.0,2.0,15.0
57.0,58.0,57.8,1.0,-0.6,-0.58,-0.59,0.17,0.19,0.17,-0.8,-0.78,-0.79,1.0,1.0,15.0
65.0,68.0,66.2,1.01,-0.38,0.08,-0.12,-1.4,0.15,-0.7,-1.43,0.3,-0.62,1.0,2.0,15.0
70.0,72.0,71.5,1.0,-0.22,0.15,-0.11,0.47,1.03,0.81,-1.04,0.01,-0.48,1.0,1.0,15.0
65.0,67.0,66.17,1.0,-0.06,-0.05,-0.06,-0.67,-0.65,-0.66,-0.75,-0.75,-0.75,1.0,2.0,15.0
58.0,79.0,63.83,1.0,-0.67,0.02,-0.12,-0.93,0.98,0.59,0.14,1.01,0.58,1.0,2.0,15.0
51.0,61.0,54.83,1.0,-0.06,-0.05,-0.05,-0.21,-0.2,-0.2,-0.98,-0.97,-0.98,1.0,2.0,15.0
71.0,72.0,71.83,1.0,-0.17,-0.16,-0.16,0.98,0.99,0.99,-0.04,-0.03,-0.03,1.0,1.0,15.0
53.0,55.0,53.6,1.0,-0.06,-0.03,-0.05,-0.22,-0.18,-0.21,-0.99,-0.97,-0.98,1.0,2.0,15.0
59.0,65.0,61.71,1.0,-0.25,-0.24,-0.24,-0.6,-0.58,-0.59,-0.78,-0.76,-0.77,1.0,2.0,15.0
51.0,60.0,55.83,1.01,-0.48,0.49,-0.09,-0.85,1.34,0.27,-1.0,1.47,-0.68,1.0,3.0,15.0
66.0,68.0,66.4,1.0,0.15,0.16,0.15,-0.82,-0.81,-0.82,0.55,0.56,0.55,1.0,2.0,15.0
54.0,57.0,55.2,1.0,-0.06,-0.05,-0.06,-0.21,-0.2,-0.21,-0.98,-0.97,-0.98,1.0,2.0,15.0
68.0,73.0,69.83,1.0,-0.06,-0.06,-0.06,-0.66,-0.65,-0.66,-0.76,-0.75,-0.75,1.0,3.0,15.0
61.0,63.0,62.0,1.0,-0.25,-0.24,-0.25,-0.59,-0.58,-0.59,-0.77,-0.76,-0.77,1.0,2.0,15.0
72.0,77.0,75.0,1.0,-0.02,-0.01,-0.02,0.06,0.06,0.06,-1.01,-0.99,-1.0,1.0,2.0,15.0
68.0,68.0,68.0,1.0,-0.02,-0.01,-0.02,0.05,0.08,0.06,-1.02,-0.99,-1.0,1.0,2.0,15.0
59.0,61.0,59.83,1.0,-0.28,0.25,0.06,-1.06,0.11,-0.8,-0.06,1.01,0.53,1.0,1.0,15.0
65.0,66.0,65.33,1.0,-0.32,-0.29,-0.29,-0.2,-0.16,-0.17,-0.95,-0.93,-0.94,1.0,3.0,15.0
53.0,57.0,54.83,1.0,-0.06,-0.05,-0.06,-0.21,-0.2,-0.21,-0.98,-0.97,-0.98,1.0,2.0,15.0
65.0,69.0,67.57,1.0,0.15,0.16,0.15,-0.82,-0.82,-0.82,0.54,0.56,0.55,1.0,2.0,15.0
59.0,61.0,59.6,1.0,0.0,0.01,0.01,-0.3,-0.29,-0.3,-0.96,-0.95,-0.96,1.0,2.0,15.0
59.0,61.0,59.43,1.0,0.0,0.01,0.01,-0.3,-0.28,-0.29,-0.96,-0.95,-0.96,1.0,2.0,15.0
61.0,65.0,62.4,1.0,-0.25,-0.24,-0.25,-0.59,-0.58,-0.59,-0.77,-0.76,-0.77,1.0,2.0,15.0
64.0,67.0,66.0,1.0,-0.06,-0.05,-0.06,-0.66,-0.65,-0.66,-0.76,-0.74,-0.75,1.0,3.0,15.0
73.0,76.0,74.0,1.0,-0.34,-0.08,-0.17,0.17,1.34,0.95,-0.98,-0.01,-0.11,1.0,1.0,15.0
69.0,71.0,69.57,1.0,-0.07,-0.06,-0.06,-0.65,-0.64,-0.65,-0.76,-0.75,-0.76,1.0,2.0,15.0
64.0,66.0,65.17,1.0,-0.12,-0.11,-0.11,-0.57,-0.55,-0.56,-0.83,-0.82,-0.82,1.0,3.0,15.0
65.0,69.0,66.67,1.0,-0.12,-0.11,-0.11,-0.56,-0.55,-0.55,-0.83,-0.82,-0.82,1.0,3.0,15.0
65.0,66.0,65.17,1.0,-0.12,-0.11,-0.11,-0.56,-0.55,-0.55,-0.83,-0.82,-0.83,1.0,3.0,15.0
66.0,66.0,66.0,1.0,-0.07,-0.06,-0.06,-0.51,-0.49,-0.5,-0.87,-0.86,-0.86,1.0,3.0,15.0
68.0,74.0,71.33,1.0,-0.02,-0.01,-0.02,0.06,0.07,0.06,-1.0,-1.0,-1.0,1.0,2.0,15.0
57.0,59.0,57.8,1.0,-0.07,-0.05,-0.06,-0.21,-0.2,-0.2,-0.98,-0.97,-0.98,1.0,2.0,15.0
67.0,73.0,69.0,1.0,-0.07,-0.06,-0.06,-0.65,-0.64,-0.65,-0.76,-0.76,-0.76,1.0,2.0,15.0
89.0,91.0,89.83,1.0,0.54,0.56,0.55,0.3,0.32,0.31,-0.79,-0.76,-0.77,0.0,5.0,24.0
88.0,94.0,91.14,1.0,0.54,0.56,0.55,0.31,0.33,0.32,-0.78,-0.76,-0.77,0.0,5.0,24.0
90.0,95.0,91.8,1.0,0.42,0.43,0.43,0.64,0.65,0.64,-0.64,-0.63,-0.63,0.0,0.0,24.0
93.0,94.0,93.5,0.99,-0.14,-0.14,-0.14,0.61,0.61,0.61,-0.78,-0.77,-0.77,0.0,0.0,24.0
89.0,92.0,90.17,1.0,0.54,0.57,0.55,0.3,0.31,0.3,-0.79,-0.76,-0.77,0.0,5.0,24.0
75.0,76.0,75.17,1.0,0.04,0.04,0.04,0.36,0.37,0.36,-0.93,-0.92,-0.93,0.0,0.0,24.0
88.0,91.0,89.71,1.0,0.54,0.56,0.55,0.3,0.31,0.31,-0.79,-0.76,-0.77,0.0,5.0,24.0
74.0,79.0,77.33,0.99,-0.04,0.05,0.01,0.08,0.17,0.14,-0.99,-0.95,-0.98,0.0,0.0,24.0
89.0,90.0,89.83,1.0,0.54,0.56,0.55,0.3,0.31,0.3,-0.78,-0.76,-0.77,0.0,5.0,24.0
87.0,89.0,87.8,1.0,0.54,0.55,0.55,0.31,0.32,0.31,-0.79,-0.76,-0.77,0.0,5.0,24.0
73.0,77.0,74.5,1.0,0.03,0.04,0.04,0.36,0.37,0.36,-0.93,-0.92,-0.93,0.0,0.0,24.0
73.0,80.0,76.0,0.99,0.02,0.03,0.02,0.13,0.14,0.13,-0.99,-0.98,-0.98,0.0,0.0,24.0
77.0,81.0,80.0,0.99,0.04,0.04,0.04,0.35,0.36,0.35,-0.93,-0.93,-0.93,0.0,0.0,24.0
76.0,76.0,76.0,0.99,-0.44,0.46,-0.21,-0.57,1.05,0.78,-1.11,0.54,-0.29,0.0,0.0,24.0
85.0,89.0,87.0,1.0,0.54,0.55,0.55,0.31,0.32,0.31,-0.79,-0.76,-0.77,0.0,5.0,24.0
88.0,88.0,88.0,0.99,-0.51,-0.5,-0.51,0.09,0.12,0.1,-0.85,-0.84,-0.84,0.0,5.0,24.0
86.0,95.0,90.33,1.0,0.54,0.56,0.55,0.31,0.33,0.32,-0.78,-0.76,-0.77,0.0,5.0,24.0
89.0,93.0,91.43,0.99,-0.2,-0.2,-0.2,0.39,0.4,0.4,-0.9,-0.89,-0.89,0.0,0.0,24.0
85.0,88.0,86.57,1.0,0.54,0.55,0.55,0.3,0.32,0.31,-0.79,-0.76,-0.77,0.0,5.0,24.0
80.0,80.0,80.0,0.99,0.04,0.05,0.04,0.35,0.36,0.36,-0.93,-0.92,-0.93,0.0,0.0,24.0
79.0,80.0,79.17,0.99,0.04,0.05,0.04,0.35,0.36,0.36,-0.93,-0.92,-0.93,0.0,0.0,24.0
89.0,90.0,89.71,1.0,0.54,0.56,0.55,0.31,0.32,0.31,-0.79,-0.76,-0.77,0.0,5.0,24.0
89.0,90.0,89.67,0.99,-0.19,-0.19,-0.19,0.5,0.51,0.5,-0.84,-0.83,-0.84,0.0,0.0,24.0
90.0,91.0,90.17,1.0,0.54,0.56,0.55,0.3,0.32,0.31,-0.79,-0.76,-0.77,0.0,5.0,24.0
79.0,80.0,79.67,0.99,0.04,0.04,0.04,0.35,0.36,0.36,-0.93,-0.92,-0.93,0.0,0.0,24.0
76.0,78.0,77.43,1.0,-0.16,-0.01,-0.06,0.77,0.88,0.79,-0.65,-0.44,-0.6,0.0,0.0,24.0
75.0,77.0,76.0,1.0,0.04,0.04,0.04,0.36,0.36,0.36,-0.93,-0.92,-0.93,0.0,0.0,24.0
77.0,79.0,78.33,0.99,0.04,0.04,0.04,0.35,0.36,0.36,-0.93,-0.93,-0.93,0.0,0.0,24.0
96.0,108.0,101.57,0.99,-0.12,-0.12,-0.12,0.59,0.6,0.59,-0.79,-0.78,-0.79,1.0,2.0,24.0
84.0,91.0,86.8,0.99,-0.12,-0.11,-0.12,0.59,0.61,0.59,-0.79,-0.78,-0.79,1.0,2.0,24.0
84.0,85.0,84.67,0.99,-0.19,-0.19,-0.19,0.5,0.51,0.5,-0.84,-0.83,-0.83,1.0,2.0,24.0
87.0,91.0,89.17,1.0,0.55,0.57,0.56,0.32,0.33,0.33,-0.77,-0.74,-0.76,1.0,3.0,24.0
82.0,85.0,83.33,0.99,-0.2,-0.19,-0.19,0.47,0.48,0.47,-0.85,-0.85,-0.85,1.0,2.0,24.0
88.0,89.0,88.33,0.99,-0.19,-0.19,-0.19,0.5,0.51,0.5,-0.84,-0.83,-0.84,1.0,2.0,24.0
83.0,85.0,84.5,0.99,-0.19,-0.19,-0.19,0.5,0.51,0.5,-0.84,-0.83,-0.84,1.0,2.0,24.0
88.0,99.0,91.83,1.0,0.37,0.4,0.38,0.52,0.54,0.53,-0.76,-0.74,-0.75,1.0,2.0,24.0
83.0,85.0,84.2,0.99,-0.2,-0.19,-0.19,0.47,0.48,0.47,-0.85,-0.85,-0.85,1.0,2.0,24.0
92.0,93.0,92.8,0.99,-0.2,-0.14,-0.15,0.6,0.66,0.61,-0.79,-0.72,-0.77,1.0,1.0,24.0
90.0,91.0,90.83,0.99,-0.2,-0.2,-0.2,0.39,0.41,0.4,-0.89,-0.88,-0.89,1.0,3.0,24.0
84.0,89.0,86.67,1.0,0.42,0.44,0.43,0.64,0.65,0.64,-0.64,-0.62,-0.63,1.0,2.0,24.0
86.0,94.0,90.43,1.0,0.55,0.57,0.56,0.33,0.34,0.34,-0.77,-0.73,-0.75,1.0,2.0,24.0
89.0,94.0,92.57,1.0,0.56,0.57,0.56,0.33,0.34,0.34,-0.76,-0.74,-0.75,1.0,2.0,24.0
87.0,89.0,87.67,0.99,-0.2,-0.19,-0.19,0.5,0.51,0.5,-0.84,-0.83,-0.83,1.0,2.0,24.0
90.0,91.0,90.29,0.99,-0.19,-0.19,-0.19,0.5,0.51,0.5,-0.84,-0.83,-0.84,1.0,2.0,24.0
93.0,108.0,100.0,1.0,0.36,0.38,0.37,0.52,0.53,0.52,-0.77,-0.75,-0.76,1.0,3.0,24.0
87.0,88.0,87.6,0.99,-0.51,-0.5,-0.51,0.09,0.12,0.1,-0.85,-0.84,-0.84,1.0,2.0,24.0
86.0,88.0,87.29,0.99,-0.51,-0.5,-0.51,0.08,0.12,0.1,-0.85,-0.84,-0.85,1.0,2.0,24.0
89.0,97.0,93.5,1.0,0.55,0.57,0.56,0.33,0.34,0.34,-0.76,-0.74,-0.75,1.0,3.0,24.0
85.0,88.0,86.33,0.99,-0.51,-0.5,-0.51,0.09,0.11,0.1,-0.85,-0.84,-0.84,1.0,2.0,24.0
85.0,87.0,86.0,0.99,-0.51,-0.5,-0.51,0.08,0.11,0.1,-0.85,-0.83,-0.84,1.0,2.0,24.0
91.0,93.0,92.5,0.99,-0.15,-0.14,-0.15,0.6,0.61,0.61,-0.78,-0.77,-0.77,1.0,2.0,24.0
87.0,92.0,89.83,1.0,0.42,0.44,0.43,0.64,0.65,0.64,-0.64,-0.62,-0.63,1.0,2.0,24.0
90.0,94.0,92.83,1.0,0.55,0.57,0.56,0.33,0.34,0.34,-0.76,-0.74,-0.75,1.0,2.0,24.0
92.0,93.0,92.67,0.99,-0.15,-0.14,-0.15,0.6,0.61,0.61,-0.78,-0.77,-0.77,1.0,3.0,24.0
89.0,92.0,90.2,1.0,0.55,0.57,0.56,0.32,0.33,0.33,-0.78,-0.75,-0.76,1.0,3.0,24.0
91.0,94.0,92.71,0.99,-0.14,-0.13,-0.13,0.61,0.61,0.61,-0.78,-0.77,-0.77,1.0,1.0,24.0
71.0,75.0,73.2,1.0,0.39,0.4,0.39,0.4,0.41,0.4,-0.83,-0.81,-0.82,0.0,5.0,8.0
71.0,74.0,71.83,1.0,0.39,0.4,0.39,0.4,0.42,0.4,-0.83,-0.81,-0.82,0.0,5.0,8.0
66.0,71.0,68.5,1.0,-0.12,0.68,0.08,0.02,0.81,0.38,-1.03,-0.73,-0.89,0.0,0.0,8.0
67.0,68.0,67.5,0.99,-0.84,-0.83,-0.84,-0.13,-0.12,-0.12,-0.53,-0.51,-0.52,0.0,5.0,8.0
72.0,77.0,75.67,1.0,0.38,0.39,0.39,0.4,0.42,0.41,-0.83,-0.81,-0.82,0.0,5.0,8.0
64.0,68.0,65.71,1.0,-0.32,-0.31,-0.31,-0.79,-0.79,-0.79,0.52,0.53,0.52,0.0,5.0,8.0
68.0,71.0,69.6,1.0,0.51,0.52,0.51,0.28,0.29,0.29,-0.81,-0.8,-0.81,0.0,5.0,8.0
66.0,71.0,68.17,1.0,-0.32,-0.31,-0.32,-0.79,-0.78,-0.79,0.52,0.53,0.52,0.0,5.0,8.0
55.0,65.0,59.83,0.99,-0.59,-0.55,-0.56,-0.41,-0.37,-0.39,-0.73,-0.7,-0.72,0.0,0.0,8.0
68.0,70.0,68.6,1.0,-0.32,-0.31,-0.31,-0.79,-0.78,-0.79,0.52,0.53,0.53,0.0,5.0,8.0
69.0,75.0,71.33,1.0,-0.32,-0.31,-0.32,-0.79,-0.78,-0.79,0.52,0.53,0.52,0.0,5.0,8.0
62.0,66.0,63.17,1.0,-0.32,-0.31,-0.32,-0.79,-0.78,-0.79,0.52,0.53,0.52,0.0,5.0,8.0
72.0,73.0,72.17,1.0,0.51,0.52,0.51,0.28,0.29,0.29,-0.81,-0.8,-0.81,0.0,5.0,8.0
66.0,72.0,68.17,1.0,0.39,0.41,0.4,0.38,0.4,0.39,-0.83,-0.82,-0.82,0.0,5.0,8.0
71.0,75.0,72.71,1.01,-1.21,-0.02,-0.58,-0.9,1.31,-0.38,-0.98,0.22,-0.56,0.0,0.0,8.0
65.0,68.0,67.14,1.0,-0.35,-0.21,-0.29,-0.94,-0.68,-0.78,0.26,0.71,0.55,0.0,5.0,8.0
76.0,84.0,82.17,1.0,0.32,0.34,0.33,0.47,0.49,0.48,-0.82,-0.8,-0.81,0.0,5.0,8.0
71.0,76.0,74.33,1.0,-0.32,-0.31,-0.32,-0.79,-0.78,-0.79,0.52,0.53,0.52,0.0,5.0,8.0
77.0,94.0,88.17,1.0,0.51,0.52,0.51,0.28,0.3,0.29,-0.81,-0.8,-0.81,0.0,5.0,8.0
69.0,71.0,69.67,1.0,0.39,0.4,0.39,0.39,0.41,0.4,-0.83,-0.81,-0.82,0.0,5.0,8.0
65.0,70.0,67.17,1.0,0.38,0.39,0.39,0.4,0.42,0.41,-0.83,-0.81,-0.82,0.0,5.0,8.0
63.0,68.0,65.83,1.0,0.32,0.34,0.33,0.47,0.49,0.48,-0.82,-0.8,-0.81,0.0,5.0,8.0
65.0,68.0,66.67,1.0,-0.32,-0.31,-0.32,-0.79,-0.78,-0.79,0.52,0.53,0.52,0.0,5.0,8.0
74.0,75.0,74.33,1.0,0.51,0.52,0.51,0.28,0.29,0.28,-0.81,-0.8,-0.81,0.0,5.0,8.0
68.0,70.0,69.0,1.0,0.32,0.33,0.33,0.47,0.49,0.48,-0.82,-0.8,-0.81,0.0,5.0,8.0
65.0,68.0,67.0,1.0,-0.32,-0.31,-0.32,-0.79,-0.78,-0.79,0.52,0.53,0.52,0.0,5.0,8.0
63.0,66.0,64.8,1.0,-0.32,-0.31,-0.32,-0.79,-0.78,-0.79,0.52,0.53,0.52,0.0,5.0,8.0
71.0,78.0,75.17,1.0,0.39,0.4,0.39,0.39,0.41,0.4,-0.83,-0.82,-0.82,0.0,5.0,8.0
68.0,73.0,71.17,1.0,0.38,0.39,0.39,0.4,0.42,0.41,-0.83,-0.82,-0.82,0.0,5.0,8.0
77.0,95.0,87.83,1.0,0.32,0.39,0.38,0.4,0.54,0.42,-0.86,-0.8,-0.82,0.0,5.0,8.0
63.0,76.0,66.8,1.0,0.53,0.55,0.54,0.24,0.25,0.25,-0.81,-0.79,-0.8,0.0,0.0,8.0
63.0,64.0,63.2,1.0,-0.28,-0.27,-0.28,-0.78,-0.77,-0.78,0.56,0.57,0.56,0.0,5.0,8.0
66.0,68.0,66.57,1.0,-0.32,-0.31,-0.32,-0.79,-0.78,-0.79,0.52,0.53,0.53,0.0,5.0,8.0
68.0,72.0,69.83,1.0,0.51,0.52,0.51,0.28,0.3,0.29,-0.81,-0.8,-0.81,0.0,5.0,8.0
76.0,93.0,80.0,1.0,0.51,0.52,0.51,0.28,0.29,0.29,-0.81,-0.8,-0.81,0.0,5.0,8.0
66.0,67.0,66.67,1.0,-0.32,-0.31,-0.32,-0.79,-0.78,-0.79,0.52,0.53,0.53,0.0,5.0,8.0
65.0,68.0,66.57,1.0,0.32,0.33,0.33,0.47,0.49,0.48,-0.82,-0.8,-0.81,0.0,5.0,8.0
80.0,88.0,84.25,1.0,0.57,0.59,0.58,0.11,0.12,0.11,-0.81,-0.79,-0.8,0.0,0.0,8.0
67.0,95.0,86.0,1.0,0.32,0.33,0.33,0.47,0.48,0.48,-0.82,-0.8,-0.81,0.0,5.0,8.0
63.0,66.0,64.5,1.0,0.34,0.53,0.48,0.11,0.31,0.2,-0.91,-0.82,-0.85,0.0,0.0,8.0
66.0,80.0,71.33,1.0,-0.32,-0.31,-0.31,-0.79,-0.78,-0.79,0.52,0.54,0.52,0.0,5.0,8.0
69.0,71.0,70.0,1.0,0.38,0.4,0.39,0.4,0.42,0.4,-0.84,-0.81,-0.82,0.0,5.0,8.0
64.0,65.0,64.6,1.0,-0.32,-0.31,-0.31,-0.79,-0.78,-0.79,0.52,0.53,0.53,0.0,5.0,8.0
62.0,65.0,64.0,1.0,0.51,0.52,0.51,0.28,0.29,0.29,-0.82,-0.8,-0.81,0.0,5.0,8.0
68.0,69.0,68.5,1.0,-0.61,-0.06,-0.31,-0.76,-0.72,-0.74,0.42,0.67,0.58,1.0,2.0,8.0
62.0,64.0,63.2,0.99,-0.87,-0.86,-0.86,-0.13,-0.12,-0.12,-0.49,-0.47,-0.48,1.0,2.0,8.0
64.0,70.0,66.83,1.0,0.6,0.62,0.61,0.46,0.47,0.47,-0.64,-0.62,-0.63,1.0,2.0,8.0
68.0,74.0,70.83,1.0,0.51,0.53,0.52,0.25,0.26,0.26,-0.82,-0.8,-0.81,1.0,3.0,8.0
63.0,63.0,63.0,1.0,0.42,1.03,0.54,0.08,0.14,0.11,-0.88,-0.65,-0.83,1.0,3.0,8.0
62.0,64.0,63.0,1.0,-0.3,-0.28,-0.29,-0.79,-0.78,-0.79,0.53,0.55,0.54,1.0,2.0,8.0
60.0,67.0,63.14,1.0,-0.31,-0.31,-0.31,-0.79,-0.78,-0.79,0.52,0.53,0.53,1.0,2.0,8.0
60.0,73.0,66.17,1.0,0.5,0.52,0.51,0.15,0.16,0.16,-0.85,-0.83,-0.84,1.0,2.0,8.0
61.0,65.0,63.6,1.0,0.63,0.64,0.64,0.46,0.47,0.46,-0.62,-0.6,-0.61,1.0,3.0,8.0
65.0,68.0,66.86,1.0,-0.32,-0.31,-0.31,-0.79,-0.78,-0.79,0.52,0.53,0.53,1.0,2.0,8.0
64.0,69.0,65.29,1.0,0.47,0.5,0.48,0.25,0.29,0.28,-0.84,-0.81,-0.83,1.0,2.0,8.0
59.0,92.0,80.0,0.99,-0.87,-0.86,-0.86,-0.13,-0.12,-0.12,-0.49,-0.47,-0.48,1.0,2.0,8.0
71.0,73.0,71.83,1.0,0.52,0.55,0.53,0.25,0.27,0.26,-0.81,-0.78,-0.8,1.0,3.0,8.0
68.0,69.0,68.17,1.0,-0.99,-0.76,-0.84,-0.29,0.11,-0.16,-0.62,-0.25,-0.5,1.0,2.0,8.0
68.0,70.0,68.67,1.0,-0.17,-0.16,-0.16,-0.9,-0.89,-0.9,0.4,0.42,0.4,1.0,2.0,8.0
70.0,72.0,70.83,1.0,0.6,0.62,0.6,0.47,0.49,0.48,-0.64,-0.63,-0.63,1.0,2.0,8.0
63.0,64.0,63.67,1.0,0.45,0.5,0.49,0.21,0.26,0.25,-0.84,-0.82,-0.83,1.0,2.0,8.0
71.0,72.0,71.67,1.0,0.6,0.61,0.6,0.48,0.5,0.49,-0.63,-0.61,-0.62,1.0,2.0,8.0
66.0,68.0,67.5,0.99,-0.45,-0.43,-0.44,0.47,0.49,0.48,-0.76,-0.74,-0.75,1.0,2.0,8.0
73.0,75.0,74.2,1.0,0.52,0.53,0.52,0.31,0.33,0.32,-0.79,-0.78,-0.79,1.0,2.0,8.0
68.0,72.0,69.14,1.0,-0.32,-0.31,-0.31,-0.79,-0.78,-0.79,0.52,0.53,0.53,1.0,1.0,8.0
65.0,67.0,65.6,1.0,-0.32,-0.31,-0.31,-0.79,-0.78,-0.79,0.52,0.53,0.53,1.0,2.0,8.0
68.0,72.0,70.14,1.0,0.51,0.53,0.52,0.31,0.32,0.32,-0.8,-0.78,-0.79,1.0,2.0,8.0
70.0,72.0,70.8,1.0,0.5,0.53,0.51,0.27,0.3,0.29,-0.81,-0.79,-0.8,1.0,2.0,8.0
68.0,73.0,70.57,1.0,0.52,0.58,0.54,0.26,0.33,0.31,-0.79,-0.74,-0.78,1.0,2.0,8.0
58.0,59.0,58.67,1.0,0.56,0.58,0.57,0.16,0.17,0.16,-0.81,-0.79,-0.8,1.0,2.0,8.0
72.0,73.0,72.33,1.0,0.51,0.52,0.51,0.27,0.29,0.28,-0.81,-0.8,-0.81,1.0,2.0,8.0
65.0,67.0,66.5,1.0,0.39,0.75,0.62,-0.2,0.71,0.51,-0.94,-0.33,-0.56,1.0,1.0,8.0
61.0,61.0,61.0,1.0,0.56,0.58,0.57,0.12,0.14,0.13,-0.82,-0.8,-0.81,1.0,2.0,8.0
70.0,71.0,70.5,1.03,-0.72,0.72,0.44,-1.16,1.19,0.23,-1.8,0.2,-0.78,1.0,3.0,8.0
64.0,67.0,65.67,1.0,-0.12,-0.09,-0.11,-0.87,-0.84,-0.87,0.47,0.52,0.48,1.0,2.0,8.0
63.0,66.0,65.0,0.99,-0.48,-0.44,-0.45,0.27,0.34,0.29,-0.84,-0.82,-0.84,1.0,2.0,8.0
67.0,68.0,67.67,1.0,-0.31,-0.31,-0.31,-0.79,-0.79,-0.79,0.52,0.53,0.53,1.0,2.0,8.0
65.0,70.0,67.83,1.0,0.6,0.62,0.6,0.48,0.5,0.49,-0.64,-0.61,-0.62,1.0,2.0,8.0
68.0,72.0,69.83,1.0,0.6,0.62,0.6,0.48,0.5,0.49,-0.63,-0.61,-0.62,1.0,2.0,8.0
65.0,72.0,69.17,1.0,0.59,0.61,0.6,0.47,0.49,0.48,-0.64,-0.62,-0.63,1.0,2.0,8.0
69.0,72.0,71.17,1.0,0.54,0.55,0.54,0.24,0.25,0.25,-0.81,-0.79,-0.8,1.0,3.0,8.0
67.0,68.0,67.2,1.0,-0.31,-0.31,-0.31,-0.79,-0.78,-0.79,0.52,0.53,0.53,1.0,2.0,8.0
67.0,68.0,67.5,1.0,-0.32,-0.31,-0.31,-0.79,-0.78,-0.79,0.52,0.53,0.53,1.0,2.0,8.0
68.0,76.0,72.0,1.0,-0.31,-0.3,-0.3,-0.76,-0.75,-0.75,0.57,0.58,0.58,1.0,2.0,8.0
68.0,70.0,68.67,0.99,-0.84,-0.83,-0.84,-0.13,-0.12,-0.13,-0.53,-0.52,-0.53,1.0,2.0,8.0
60.0,63.0,61.67,1.0,0.63,0.64,0.64,0.46,0.47,0.46,-0.62,-0.61,-0.61,1.0,3.0,8.0
64.0,65.0,64.83,1.0,-0.3,-0.29,-0.29,-0.78,-0.77,-0.78,0.55,0.55,0.55,1.0,2.0,8.0
66.0,68.0,67.5,1.0,-0.16,-0.15,-0.16,-0.91,-0.89,-0.89,0.42,0.43,0.43,1.0,1.0,8.0
66.0,68.0,66.8,1.0,0.4,0.41,0.41,0.38,0.4,0.38,-0.83,-0.82,-0.82,1.0,2.0,8.0
67.0,68.0,67.83,1.0,0.09,0.65,0.6,-0.69,0.16,0.11,-1.16,-0.71,-0.77,1.0,2.0,8.0
70.0,73.0,71.33,1.0,0.5,0.52,0.51,0.15,0.16,0.16,-0.85,-0.83,-0.84,1.0,2.0,8.0
70.0,71.0,70.2,1.0,0.58,0.63,0.6,0.47,0.49,0.48,-0.65,-0.62,-0.63,1.0,2.0,8.0
63.0,64.0,63.83,1.0,0.53,0.54,0.54,0.1,0.11,0.1,-0.84,-0.82,-0.84,1.0,3.0,8.0
59.0,64.0,62.0,1.0,-0.14,-0.13,-0.13,-0.96,-0.96,-0.96,-0.24,-0.23,-0.23,0.0,0.0,16.0
56.0,58.0,56.67,1.0,-0.13,-0.13,-0.13,-0.96,-0.96,-0.96,-0.23,-0.22,-0.23,0.0,5.0,16.0
57.0,57.0,57.0,0.99,0.06,0.09,0.08,0.25,0.27,0.26,-0.96,-0.95,-0.96,0.0,0.0,16.0
59.0,60.0,59.33,0.99,0.1,0.1,0.1,0.17,0.18,0.18,-0.98,-0.97,-0.97,0.0,0.0,16.0
62.0,63.0,62.83,0.99,-0.5,-0.49,-0.5,0.22,0.23,0.22,-0.83,-0.83,-0.83,0.0,5.0,16.0
59.0,63.0,60.83,0.99,0.1,0.1,0.1,0.17,0.18,0.18,-0.98,-0.97,-0.97,0.0,0.0,16.0
56.0,59.0,57.67,0.99,0.1,0.1,0.1,0.17,0.18,0.18,-0.98,-0.97,-0.97,0.0,0.0,16.0
57.0,59.0,58.17,0.99,0.1,0.1,0.1,0.17,0.18,0.18,-0.98,-0.97,-0.97,0.0,0.0,16.0
60.0,60.0,60.0,0.99,0.1,0.1,0.1,0.17,0.18,0.18,-0.98,-0.97,-0.97,0.0,0.0,16.0
63.0,64.0,63.67,0.99,-0.5,-0.49,-0.5,0.21,0.23,0.22,-0.83,-0.82,-0.83,0.0,5.0,16.0
62.0,67.0,64.86,0.99,-0.5,-0.49,-0.5,0.22,0.23,0.22,-0.84,-0.82,-0.83,0.0,0.0,16.0
60.0,64.0,61.14,1.0,-0.14,-0.13,-0.13,-0.96,-0.96,-0.96,-0.23,-0.22,-0.23,0.0,5.0,16.0
62.0,64.0,62.67,0.99,-0.26,-0.25,-0.25,-0.86,-0.85,-0.85,-0.45,-0.43,-0.44,0.0,0.0,16.0
59.0,59.0,59.0,0.99,0.1,0.1,0.1,0.17,0.18,0.17,-0.98,-0.97,-0.97,0.0,0.0,16.0
58.0,61.0,59.17,0.99,0.1,0.1,0.1,0.17,0.18,0.18,-0.98,-0.97,-0.97,0.0,0.0,16.0
63.0,64.0,63.14,0.99,-0.5,-0.49,-0.5,0.21,0.22,0.22,-0.83,-0.82,-0.83,0.0,0.0,16.0
62.0,68.0,66.8,0.99,-0.5,-0.49,-0.5,0.22,0.22,0.22,-0.83,-0.82,-0.83,0.0,5.0,16.0
62.0,64.0,63.0,1.0,-0.22,-0.21,-0.21,0.91,0.92,0.92,0.33,0.34,0.34,0.0,0.0,16.0
64.0,64.0,64.0,0.99,-0.5,-0.49,-0.5,0.22,0.23,0.22,-0.83,-0.83,-0.83,0.0,5.0,16.0
59.0,60.0,59.2,0.99,0.1,0.1,0.1,0.17,0.18,0.18,-0.98,-0.97,-0.97,0.0,0.0,16.0
60.0,72.0,66.17,1.0,-0.05,0.17,-0.01,-0.21,0.89,0.79,-1.18,-0.47,-0.53,0.0,0.0,16.0
58.0,58.0,58.0,0.99,-0.38,-0.37,-0.38,-0.91,-0.9,-0.91,-0.16,-0.15,-0.16,0.0,5.0,16.0
61.0,62.0,61.33,1.0,-0.19,-0.18,-0.19,-0.98,-0.97,-0.97,-0.12,-0.11,-0.11,1.0,2.0,16.0
64.0,65.0,64.4,0.99,-0.59,-0.58,-0.59,-0.03,-0.02,-0.02,-0.81,-0.79,-0.8,1.0,3.0,16.0
65.0,91.0,81.67,0.99,-0.59,-0.58,-0.58,-0.02,-0.01,-0.01,-0.81,-0.8,-0.8,1.0,3.0,16.0
56.0,59.0,57.5,0.99,0.02,0.03,0.02,0.6,0.61,0.61,-0.79,-0.78,-0.78,1.0,2.0,16.0
59.0,59.0,59.0,1.0,-0.14,-0.13,-0.13,-0.96,-0.96,-0.96,-0.23,-0.22,-0.23,1.0,1.0,16.0
61.0,64.0,62.33,0.99,-0.41,-0.4,-0.41,-0.36,-0.34,-0.35,-0.84,-0.83,-0.83,1.0,3.0,16.0
55.0,61.0,58.17,0.99,0.07,0.08,0.07,0.43,0.44,0.43,-0.9,-0.89,-0.89,1.0,3.0,16.0
57.0,61.0,58.2,0.99,0.02,0.03,0.02,0.6,0.65,0.61,-0.79,-0.77,-0.78,1.0,2.0,16.0
63.0,65.0,64.33,0.99,-0.5,-0.49,-0.5,0.21,0.23,0.22,-0.83,-0.82,-0.83,1.0,2.0,16.0
63.0,63.0,63.0,1.0,-0.46,-0.01,-0.16,-1.24,-0.18,-0.93,-0.93,0.14,-0.17,1.0,2.0,16.0
60.0,61.0,60.6,0.99,-0.12,-0.11,-0.11,-0.2,-0.18,-0.19,-0.97,-0.96,-0.97,1.0,2.0,16.0
63.0,63.0,63.0,1.0,-0.21,-0.21,-0.21,0.92,0.92,0.92,0.33,0.34,0.33,1.0,2.0,16.0
62.0,65.0,63.6,0.99,-0.42,-0.41,-0.41,-0.36,-0.34,-0.35,-0.84,-0.82,-0.83,1.0,1.0,16.0
59.0,61.0,60.5,0.99,0.09,0.09,0.09,0.4,0.41,0.4,-0.91,-0.9,-0.9,1.0,3.0,16.0
63.0,65.0,63.83,0.99,-0.41,-0.4,-0.41,-0.36,-0.34,-0.35,-0.84,-0.83,-0.83,1.0,3.0,16.0
63.0,64.0,63.33,1.0,-0.21,-0.2,-0.21,0.92,0.92,0.92,0.33,0.34,0.33,1.0,2.0,16.0
55.0,59.0,56.5,0.99,0.09,0.1,0.09,0.4,0.4,0.4,-0.91,-0.9,-0.9,1.0,3.0,16.0
63.0,64.0,63.2,0.99,-0.26,-0.25,-0.25,-0.86,-0.85,-0.85,-0.45,-0.43,-0.44,1.0,3.0,16.0
58.0,59.0,58.33,0.99,0.09,0.1,0.09,0.4,0.41,0.4,-0.91,-0.9,-0.9,1.0,3.0,16.0
59.0,62.0,60.8,0.99,0.02,0.03,0.02,0.6,0.61,0.61,-0.79,-0.78,-0.78,1.0,2.0,16.0
51.0,52.0,51.2,0.99,0.09,0.1,0.09,0.4,0.4,0.4,-0.91,-0.9,-0.9,1.0,3.0,16.0
64.0,65.0,64.5,0.99,-0.41,-0.4,-0.4,-0.36,-0.34,-0.35,-0.84,-0.83,-0.84,1.0,3.0,16.0
59.0,61.0,59.6,0.99,-0.5,-0.49,-0.5,0.21,0.22,0.22,-0.83,-0.82,-0.83,1.0,3.0,16.0
55.0,57.0,56.0,0.99,0.06,0.09,0.07,0.54,0.6,0.58,-0.83,-0.79,-0.8,1.0,2.0,16.0
63.0,64.0,63.5,0.99,-0.32,-0.31,-0.31,0.48,0.49,0.49,-0.81,-0.8,-0.8,1.0,2.0,16.0
65.0,65.0,65.0,0.99,0.07,0.08,0.07,0.42,0.43,0.43,-0.9,-0.89,-0.89,1.0,3.0,16.0
62.0,64.0,63.33,1.0,-0.05,-0.01,-0.03,0.95,0.99,0.96,-0.27,-0.2,-0.26,1.0,2.0,16.0
64.0,65.0,64.17,0.99,-0.41,-0.4,-0.41,-0.36,-0.34,-0.35,-0.84,-0.83,-0.83,1.0,2.0,16.0
58.0,59.0,58.5,0.99,0.1,0.11,0.1,0.17,0.18,0.18,-0.98,-0.97,-0.97,1.0,1.0,16.0
59.0,67.0,62.14,1.0,-0.12,-0.11,-0.11,-0.97,-0.96,-0.97,-0.2,-0.19,-0.2,1.0,2.0,16.0
59.0,63.0,60.5,0.99,-0.5,-0.49,-0.5,0.21,0.22,0.21,-0.83,-0.82,-0.83,1.0,3.0,16.0
62.0,63.0,62.4,1.0,-0.87,-0.03,-0.28,-0.61,0.99,0.27,-0.97,0.98,0.11,1.0,2.0,16.0
64.0,68.0,65.83,0.99,-0.5,-0.49,-0.5,0.21,0.23,0.22,-0.83,-0.83,-0.83,1.0,2.0,16.0
52.0,61.0,55.83,0.99,0.08,0.09,0.08,0.55,0.55,0.55,-0.82,-0.82,-0.82,1.0,2.0,16.0
64.0,67.0,66.17,0.99,-0.5,-0.49,-0.5,0.21,0.22,0.22,-0.83,-0.82,-0.83,1.0,2.0,16.0
62.0,63.0,62.17,0.99,0.1,0.1,0.1,0.17,0.18,0.18,-0.98,-0.97,-0.97,1.0,2.0,16.0
63.0,65.0,64.0,0.99,-0.41,-0.4,-0.41,-0.36,-0.34,-0.35,-0.84,-0.83,-0.83,1.0,2.0,16.0
63.0,63.0,63.0,1.0,-0.12,-0.11,-0.11,-0.97,-0.96,-0.97,-0.21,-0.19,-0.2,1.0,2.0,16.0
58.0,59.0,58.25,0.99,0.1,0.11,0.1,0.17,0.18,0.18,-0.97,-0.97,-0.97,1.0,1.0,16.0
63.0,63.0,63.0,1.0,-0.13,-0.12,-0.13,-0.97,-0.96,-0.97,-0.21,-0.2,-0.2,1.0,1.0,16.0
60.0,65.0,61.67,1.0,-0.14,-0.13,-0.13,-0.96,-0.95,-0.96,-0.24,-0.23,-0.23,1.0,2.0,16.0
60.0,61.0,60.6,0.99,-0.19,-0.1,-0.12,-0.22,-0.17,-0.18,-0.99,-0.94,-0.97,1.0,2.0,16.0
63.0,65.0,63.83,0.99,-0.41,-0.4,-0.41,-0.36,-0.34,-0.35,-0.84,-0.83,-0.83,1.0,3.0,16.0
50.0,51.0,50.5,1.0,-0.47,-0.45,-0.47,-0.76,-0.72,-0.75,0.45,0.51,0.46,0.0,5.0,25.0
56.0,59.0,57.5,1.0,-0.13,-0.13,-0.13,-0.97,-0.97,-0.97,0.18,0.19,0.18,0.0,5.0,25.0
54.0,59.0,55.71,0.99,-0.38,-0.37,-0.38,0.25,0.29,0.27,-0.89,-0.87,-0.88,0.0,0.0,25.0
56.0,58.0,57.6,0.99,-0.44,-0.43,-0.43,-0.4,-0.39,-0.4,-0.81,-0.79,-0.8,0.0,5.0,25.0
57.0,60.0,59.0,0.99,-0.32,-0.31,-0.32,0.16,0.18,0.17,-0.93,-0.92,-0.93,0.0,5.0,25.0
54.0,54.0,54.0,0.99,-0.39,-0.32,-0.36,0.21,0.52,0.41,-0.89,-0.77,-0.83,0.0,0.0,25.0
48.0,50.0,49.2,1.0,-0.1,-0.09,-0.09,0.15,0.17,0.16,-0.98,-0.97,-0.98,0.0,5.0,25.0
51.0,52.0,51.8,0.99,-0.34,-0.33,-0.33,0.26,0.27,0.26,-0.9,-0.89,-0.9,0.0,0.0,25.0
50.0,51.0,50.4,1.0,-0.48,-0.46,-0.47,-0.75,-0.7,-0.72,0.46,0.54,0.49,0.0,5.0,25.0
64.0,65.0,64.57,1.0,-0.3,-0.24,-0.26,-0.05,0.41,0.07,-0.97,-0.85,-0.95,0.0,5.0,25.0
50.0,50.0,50.0,1.0,-0.1,-0.09,-0.09,0.15,0.17,0.16,-0.98,-0.97,-0.98,0.0,5.0,25.0
55.0,57.0,56.0,0.99,-0.7,-0.35,-0.5,-0.45,0.47,0.17,-0.9,-0.61,-0.79,0.0,0.0,25.0
55.0,56.0,55.4,0.99,-0.4,-0.39,-0.39,0.11,0.13,0.12,-0.91,-0.9,-0.9,0.0,0.0,25.0
50.0,57.0,53.67,0.99,-0.25,-0.24,-0.24,0.07,0.08,0.08,-0.96,-0.96,-0.96,0.0,5.0,25.0
58.0,59.0,58.43,1.0,-0.55,-0.54,-0.54,-0.68,-0.67,-0.68,0.48,0.49,0.49,0.0,0.0,25.0
50.0,50.0,50.0,1.0,-0.09,-0.09,-0.09,0.15,0.17,0.16,-0.98,-0.97,-0.98,0.0,5.0,25.0
55.0,55.0,55.0,0.99,-0.44,-0.43,-0.43,-0.4,-0.38,-0.39,-0.81,-0.79,-0.8,0.0,5.0,25.0
46.0,49.0,47.33,1.0,-0.48,-0.47,-0.47,-0.75,-0.72,-0.74,0.41,0.47,0.46,0.0,5.0,25.0
62.0,63.0,62.17,0.99,-0.33,-0.32,-0.33,0.3,0.31,0.3,-0.89,-0.88,-0.89,0.0,0.0,25.0
51.0,53.0,51.67,1.0,-0.99,0.08,-0.41,-1.22,0.28,-0.31,-1.05,0.2,-0.69,0.0,0.0,25.0
51.0,52.0,51.17,1.0,-0.45,-0.45,-0.45,-0.71,-0.7,-0.71,0.53,0.54,0.54,0.0,5.0,25.0
56.0,59.0,57.67,0.99,-0.39,-0.37,-0.38,0.28,0.31,0.3,-0.88,-0.86,-0.87,0.0,0.0,25.0
53.0,59.0,54.2,0.99,-0.44,-0.42,-0.43,-0.4,-0.32,-0.39,-0.82,-0.79,-0.8,0.0,5.0,25.0
54.0,54.0,54.0,0.99,-0.42,-0.4,-0.41,-0.14,-0.13,-0.13,-0.9,-0.89,-0.89,0.0,5.0,25.0
49.0,53.0,51.4,0.99,-0.43,-0.41,-0.42,-0.38,-0.36,-0.37,-0.82,-0.81,-0.82,0.0,5.0,25.0
54.0,55.0,54.33,0.99,-0.43,-0.41,-0.42,-0.39,-0.38,-0.38,-0.82,-0.8,-0.81,0.0,5.0,25.0
48.0,59.0,51.83,1.0,-0.13,-0.13,-0.13,-0.97,-0.97,-0.97,0.18,0.19,0.19,0.0,5.0,25.0
49.0,51.0,50.0,1.0,-0.47,-0.46,-0.47,-0.76,-0.76,-0.76,0.44,0.45,0.45,0.0,5.0,25.0
58.0,60.0,59.2,1.0,-0.13,-0.12,-0.13,-0.98,-0.97,-0.97,0.15,0.19,0.17,0.0,5.0,25.0
50.0,51.0,50.57,1.0,-0.47,-0.46,-0.47,-0.76,-0.75,-0.76,0.44,0.45,0.45,0.0,5.0,25.0
56.0,59.0,58.0,0.99,-0.35,-0.33,-0.34,0.28,0.29,0.28,-0.89,-0.88,-0.89,0.0,5.0,25.0
60.0,61.0,60.4,1.0,-0.57,-0.56,-0.56,-0.71,-0.7,-0.7,0.43,0.44,0.43,0.0,5.0,25.0
53.0,56.0,54.4,0.99,-0.36,-0.34,-0.35,0.45,0.54,0.5,-0.81,-0.75,-0.79,0.0,0.0,25.0
59.0,60.0,59.8,0.99,-0.35,-0.33,-0.34,0.27,0.31,0.28,-0.9,-0.87,-0.89,0.0,5.0,25.0
50.0,51.0,50.17,1.0,-0.47,-0.46,-0.46,-0.76,-0.75,-0.75,0.45,0.46,0.45,0.0,5.0,25.0
51.0,53.0,51.33,1.0,-0.45,-0.44,-0.45,-0.71,-0.7,-0.71,0.53,0.54,0.54,0.0,5.0,25.0
57.0,60.0,58.5,0.99,-0.35,-0.33,-0.34,0.28,0.29,0.28,-0.89,-0.88,-0.89,0.0,5.0,25.0
59.0,64.0,62.17,0.99,-0.65,-0.6,-0.65,-0.58,-0.54,-0.55,0.49,0.53,0.52,0.0,0.0,25.0
60.0,61.0,60.83,1.0,-0.56,-0.54,-0.55,-0.7,-0.68,-0.69,0.45,0.48,0.47,0.0,5.0,25.0
49.0,50.0,49.67,1.0,-0.13,-0.13,-0.13,-0.97,-0.97,-0.97,0.18,0.19,0.19,0.0,5.0,25.0
53.0,55.0,53.5,1.0,-0.46,-0.45,-0.45,-0.71,-0.7,-0.71,0.53,0.54,0.54,0.0,5.0,25.0
61.0,64.0,62.5,0.99,-0.43,-0.41,-0.42,-0.38,-0.36,-0.37,-0.82,-0.81,-0.82,0.0,5.0,25.0
52.0,53.0,52.67,1.0,-0.1,-0.09,-0.09,0.16,0.17,0.17,-0.98,-0.97,-0.98,0.0,0.0,25.0
49.0,57.0,52.2,1.0,-0.13,-0.13,-0.13,-0.97,-0.97,-0.97,0.18,0.19,0.19,0.0,5.0,25.0
52.0,61.0,57.4,1.0,-0.25,-0.24,-0.24,0.07,0.09,0.08,-0.97,-0.96,-0.96,0.0,5.0,25.0
52.0,53.0,52.83,0.99,-0.81,0.33,-0.42,-0.94,0.98,-0.25,-1.18,1.52,-0.55,0.0,0.0,25.0
55.0,55.0,55.0,0.99,-0.42,-0.4,-0.41,-0.14,-0.13,-0.13,-0.9,-0.89,-0.89,0.0,5.0,25.0
51.0,53.0,51.5,1.0,-0.45,-0.44,-0.45,-0.72,-0.71,-0.71,0.53,0.54,0.53,0.0,5.0,25.0
50.0,51.0,50.6,1.0,-0.19,0.07,-0.11,-0.46,0.41,-0.0,-1.08,-0.84,-0.97,0.0,5.0,25.0
51.0,53.0,51.83,0.99,-0.34,-0.33,-0.33,0.25,0.27,0.26,-0.9,-0.89,-0.9,0.0,0.0,25.0
59.0,60.0,59.57,1.0,-0.21,-0.19,-0.21,-0.94,-0.92,-0.94,0.26,0.28,0.26,0.0,5.0,25.0
53.0,53.0,53.0,0.99,-0.43,-0.41,-0.42,-0.38,-0.36,-0.37,-0.82,-0.81,-0.82,0.0,5.0,25.0
56.0,61.0,59.5,0.99,-0.35,-0.33,-0.34,0.28,0.29,0.29,-0.89,-0.88,-0.89,0.0,5.0,25.0
56.0,58.0,56.83,1.0,-0.62,-0.61,-0.62,-0.19,-0.19,-0.19,0.76,0.77,0.76,0.0,0.0,25.0
59.0,63.0,60.2,1.0,-0.22,-0.21,-0.21,-0.94,-0.93,-0.93,0.29,0.33,0.29,0.0,5.0,25.0
50.0,53.0,51.8,0.99,-0.36,-0.34,-0.34,0.24,0.27,0.25,-0.9,-0.89,-0.9,0.0,0.0,25.0
51.0,56.0,52.8,1.0,-0.45,-0.44,-0.45,-0.72,-0.71,-0.71,0.53,0.54,0.53,0.0,5.0,25.0
58.0,59.0,58.83,1.0,-0.55,-0.54,-0.54,-0.68,-0.67,-0.68,0.48,0.49,0.49,0.0,0.0,25.0
57.0,59.0,57.5,1.0,-0.13,-0.13,-0.13,-0.97,-0.97,-0.97,0.18,0.19,0.18,0.0,5.0,25.0
54.0,57.0,55.67,0.99,-0.39,-0.36,-0.37,0.27,0.42,0.32,-0.88,-0.82,-0.86,0.0,0.0,25.0
61.0,62.0,61.2,1.0,-0.21,-0.15,-0.2,-0.99,-0.93,-0.96,0.06,0.28,0.17,0.0,5.0,25.0
50.0,53.0,51.8,0.99,-0.44,-0.43,-0.43,-0.4,-0.38,-0.39,-0.81,-0.79,-0.8,0.0,5.0,25.0
50.0,55.0,52.5,1.0,-0.45,-0.45,-0.45,-0.71,-0.7,-0.71,0.53,0.54,0.54,0.0,5.0,25.0
50.0,54.0,52.71,0.99,-0.57,-0.56,-0.57,-0.72,-0.71,-0.71,0.4,0.4,0.4,0.0,5.0,25.0
53.0,60.0,55.86,0.99,-0.44,-0.43,-0.43,-0.4,-0.39,-0.39,-0.81,-0.79,-0.8,0.0,5.0,25.0
49.0,50.0,49.67,1.0,-0.49,-0.48,-0.48,-0.71,-0.68,-0.7,0.48,0.54,0.51,0.0,5.0,25.0
61.0,65.0,62.83,0.99,-0.29,-0.28,-0.29,-0.03,-0.02,-0.02,-0.96,-0.95,-0.95,0.0,5.0,25.0
53.0,59.0,57.2,0.99,-0.4,-0.26,-0.33,0.16,0.63,0.27,-0.93,-0.84,-0.9,0.0,0.0,25.0
51.0,52.0,51.33,0.99,-0.35,-0.32,-0.33,0.24,0.26,0.25,-0.91,-0.89,-0.9,0.0,0.0,25.0
52.0,52.0,52.0,0.99,-0.34,-0.33,-0.33,0.25,0.26,0.26,-0.9,-0.89,-0.9,0.0,0.0,25.0
53.0,56.0,54.4,0.99,-0.43,-0.39,-0.42,-0.49,-0.37,-0.39,-0.85,-0.8,-0.81,0.0,5.0,25.0
56.0,68.0,63.17,1.0,-0.13,-0.13,-0.13,-0.98,-0.97,-0.97,0.18,0.19,0.18,0.0,5.0,25.0
51.0,52.0,51.5,0.99,-0.43,-0.41,-0.42,-0.38,-0.36,-0.37,-0.82,-0.81,-0.82,0.0,5.0,25.0
47.0,50.0,48.83,1.0,-0.49,-0.49,-0.49,-0.71,-0.71,-0.71,0.5,0.5,0.5,1.0,2.0,25.0
46.0,47.0,46.33,0.99,-0.65,-0.64,-0.65,-0.56,-0.55,-0.56,0.5,0.51,0.51,1.0,1.0,25.0
59.0,64.0,60.83,1.0,-0.4,-0.39,-0.39,-0.77,-0.71,-0.76,0.5,0.59,0.51,1.0,3.0,25.0
50.0,63.0,53.2,0.99,-0.34,-0.33,-0.33,0.28,0.29,0.28,-0.9,-0.89,-0.89,1.0,2.0,25.0
49.0,54.0,51.0,1.0,-0.49,-0.49,-0.49,-0.71,-0.71,-0.71,0.49,0.51,0.5,1.0,2.0,25.0
47.0,58.0,49.67,1.0,-0.49,-0.49,-0.49,-0.71,-0.7,-0.71,0.5,0.5,0.5,1.0,2.0,25.0
54.0,55.0,54.43,0.99,-0.35,-0.34,-0.35,0.38,0.4,0.38,-0.85,-0.84,-0.85,1.0,2.0,25.0
49.0,63.0,59.8,0.99,-0.33,-0.32,-0.33,0.29,0.3,0.3,-0.89,-0.89,-0.89,1.0,2.0,25.0
55.0,59.0,57.5,0.99,-0.35,-0.33,-0.34,0.27,0.31,0.28,-0.9,-0.88,-0.89,1.0,2.0,25.0
61.0,62.0,61.67,1.0,-0.59,-0.33,-0.47,-0.73,-0.17,-0.64,0.49,0.87,0.57,1.0,2.0,25.0
52.0,52.0,52.0,0.99,-0.34,-0.33,-0.33,0.28,0.29,0.28,-0.9,-0.89,-0.89,1.0,2.0,25.0
50.0,53.0,50.86,1.0,-0.49,-0.49,-0.49,-0.71,-0.7,-0.7,0.5,0.51,0.51,1.0,2.0,25.0
48.0,56.0,52.67,1.0,-0.62,-0.61,-0.61,-0.19,-0.18,-0.18,0.76,0.77,0.77,1.0,2.0,25.0
52.0,53.0,52.33,0.99,-0.1,-0.09,-0.09,0.16,0.17,0.16,-0.98,-0.97,-0.98,1.0,1.0,25.0
50.0,58.0,53.5,1.0,-0.49,-0.49,-0.49,-0.71,-0.71,-0.71,0.5,0.51,0.5,1.0,2.0,25.0
63.0,68.0,65.17,0.99,-0.33,-0.32,-0.33,0.29,0.3,0.3,-0.89,-0.88,-0.89,1.0,2.0,25.0
48.0,50.0,48.67,1.0,-0.49,-0.49,-0.49,-0.71,-0.7,-0.71,0.5,0.5,0.5,1.0,2.0,25.0
59.0,59.0,59.0,0.99,-0.33,-0.32,-0.33,0.34,0.36,0.35,-0.87,-0.87,-0.87,1.0,2.0,25.0
47.0,53.0,49.17,1.0,-0.1,-0.09,-0.09,0.16,0.17,0.16,-0.98,-0.97,-0.98,1.0,1.0,25.0
53.0,55.0,54.0,1.06,-1.06,1.2,-0.14,-1.13,2.35,-0.05,-3.08,0.63,-0.32,1.0,1.0,25.0
54.0,56.0,54.86,0.99,-0.43,-0.41,-0.42,-0.38,-0.36,-0.37,-0.82,-0.81,-0.82,1.0,2.0,25.0
47.0,55.0,53.0,1.0,-0.1,-0.09,-0.09,0.17,0.18,0.18,-0.98,-0.97,-0.97,1.0,2.0,25.0
49.0,50.0,49.25,1.0,-0.62,-0.61,-0.61,-0.19,-0.18,-0.18,0.76,0.77,0.77,1.0,2.0,25.0
60.0,69.0,65.0,1.0,-0.39,-0.38,-0.39,-0.73,-0.73,-0.73,0.55,0.56,0.56,1.0,2.0,25.0
59.0,63.0,60.83,0.99,-0.18,-0.17,-0.17,0.23,0.24,0.23,-0.95,-0.95,-0.95,1.0,1.0,25.0
49.0,50.0,49.67,0.99,-0.34,-0.33,-0.33,0.28,0.29,0.29,-0.89,-0.89,-0.89,1.0,3.0,25.0
50.0,50.0,50.0,0.99,-0.15,-0.13,-0.14,-0.03,0.03,-0.0,-1.0,-0.97,-0.98,1.0,2.0,25.0
52.0,56.0,54.33,0.99,-0.34,-0.33,-0.34,0.28,0.29,0.29,-0.89,-0.88,-0.89,1.0,2.0,25.0
52.0,55.0,53.17,0.99,-0.34,-0.33,-0.34,0.28,0.29,0.29,-0.89,-0.88,-0.89,1.0,2.0,25.0
47.0,60.0,52.75,1.0,-0.21,-0.2,-0.2,-0.97,-0.96,-0.97,0.13,0.14,0.13,1.0,2.0,25.0
53.0,57.0,55.5,1.0,-0.1,-0.09,-0.09,0.17,0.19,0.18,-0.98,-0.97,-0.97,1.0,2.0,25.0
55.0,55.0,55.0,0.99,-0.09,-0.08,-0.09,-0.28,-0.27,-0.28,-0.96,-0.95,-0.95,1.0,2.0,25.0
50.0,51.0,50.4,1.0,-0.56,-0.56,-0.56,-0.72,-0.71,-0.72,0.4,0.41,0.41,1.0,2.0,25.0
50.0,51.0,50.33,0.99,-0.34,-0.33,-0.34,0.28,0.29,0.29,-0.89,-0.88,-0.89,1.0,2.0,25.0
52.0,54.0,52.83,1.0,-0.49,-0.49,-0.49,-0.71,-0.7,-0.7,0.51,0.51,0.51,1.0,2.0,25.0
51.0,52.0,51.83,0.99,-0.34,-0.33,-0.33,0.28,0.3,0.29,-0.89,-0.88,-0.89,1.0,3.0,25.0
50.0,51.0,50.67,0.99,-0.42,-0.41,-0.41,-0.14,-0.12,-0.13,-0.9,-0.89,-0.89,1.0,2.0,25.0
53.0,59.0,57.17,0.99,-0.33,-0.32,-0.32,0.29,0.3,0.3,-0.9,-0.89,-0.89,1.0,2.0,25.0
50.0,50.0,50.0,1.0,-0.56,-0.56,-0.56,-0.72,-0.71,-0.72,0.41,0.41,0.41,1.0,2.0,25.0
47.0,47.0,47.0,0.99,-0.17,-0.16,-0.17,0.2,0.26,0.21,-0.99,-0.95,-0.96,1.0,1.0,25.0
50.0,51.0,50.5,0.99,-0.32,-0.3,-0.31,0.16,0.17,0.16,-0.94,-0.92,-0.93,1.0,2.0,25.0
52.0,54.0,52.8,0.99,-0.43,-0.41,-0.42,-0.38,-0.36,-0.37,-0.82,-0.81,-0.82,1.0,2.0,25.0
50.0,50.0,50.0,0.99,-0.16,-0.15,-0.15,0.01,0.02,0.01,-0.99,-0.98,-0.98,1.0,2.0,25.0
51.0,52.0,51.4,1.0,-0.49,-0.49,-0.49,-0.7,-0.7,-0.7,0.51,0.52,0.51,1.0,2.0,25.0
51.0,52.0,51.83,0.99,-0.34,-0.33,-0.33,0.26,0.27,0.27,-0.9,-0.89,-0.9,1.0,2.0,25.0
60.0,61.0,60.67,1.0,-0.39,-0.38,-0.39,-0.72,-0.71,-0.71,0.58,0.59,0.58,1.0,3.0,25.0
53.0,54.0,53.67,0.99,-0.43,-0.41,-0.42,-0.38,-0.36,-0.37,-0.83,-0.81,-0.82,1.0,2.0,25.0
55.0,58.0,56.57,0.99,-0.33,-0.32,-0.33,0.29,0.31,0.3,-0.89,-0.88,-0.89,1.0,3.0,25.0
62.0,64.0,62.57,1.0,-0.39,-0.38,-0.39,-0.73,-0.73,-0.73,0.55,0.57,0.56,1.0,2.0,25.0
50.0,50.0,50.0,0.99,-0.15,-0.14,-0.14,-0.0,0.01,-0.0,-0.99,-0.98,-0.98,1.0,2.0,25.0
51.0,59.0,56.8,1.0,-0.4,-0.39,-0.39,-0.76,-0.76,-0.76,0.5,0.51,0.51,1.0,3.0,25.0
62.0,64.0,63.0,1.0,-0.2,-0.2,-0.2,-0.97,-0.96,-0.96,0.13,0.14,0.14,1.0,1.0,25.0
50.0,50.0,50.0,1.0,-0.09,-0.09,-0.09,0.16,0.17,0.16,-0.98,-0.97,-0.98,1.0,1.0,25.0
59.0,61.0,59.83,1.0,-0.55,-0.54,-0.54,-0.66,-0.65,-0.65,0.52,0.53,0.52,1.0,2.0,25.0
50.0,50.0,50.0,0.99,-0.1,-0.09,-0.09,0.16,0.17,0.16,-0.99,-0.97,-0.98,1.0,2.0,25.0
53.0,57.0,55.0,1.0,-0.49,-0.49,-0.49,-0.71,-0.7,-0.7,0.5,0.51,0.5,1.0,2.0,25.0
51.0,65.0,60.4,0.99,-0.33,-0.32,-0.33,0.29,0.31,0.3,-0.89,-0.88,-0.89,1.0,2.0,25.0
50.0,61.0,58.33,1.0,-0.38,-0.37,-0.37,-0.52,-0.51,-0.52,0.76,0.77,0.77,1.0,2.0,25.0
63.0,71.0,67.17,1.0,-0.62,-0.61,-0.61,0.15,0.16,0.16,-0.78,-0.77,-0.77,0.0,5.0,19.0
65.0,73.0,69.6,1.0,-0.62,-0.61,-0.61,0.15,0.16,0.16,-0.78,-0.77,-0.77,0.0,5.0,19.0
76.0,80.0,77.33,1.0,0.2,0.23,0.22,-0.38,-0.33,-0.36,-0.93,-0.9,-0.91,0.0,0.0,19.0
77.0,79.0,77.5,1.0,-0.5,-0.49,-0.49,0.85,0.85,0.85,-0.2,-0.19,-0.2,0.0,5.0,19.0
68.0,70.0,69.2,1.0,-0.61,-0.6,-0.6,0.05,0.07,0.06,-0.82,-0.79,-0.8,0.0,0.0,19.0
73.0,76.0,74.83,1.0,-0.62,-0.61,-0.61,0.0,0.02,0.01,-0.79,-0.78,-0.79,0.0,5.0,19.0
72.0,85.0,79.17,1.0,-0.5,-0.49,-0.49,0.84,0.85,0.85,-0.21,-0.2,-0.2,0.0,5.0,19.0
68.0,75.0,72.17,1.0,0.23,0.23,0.23,-0.33,-0.32,-0.32,-0.92,-0.91,-0.92,0.0,0.0,19.0
72.0,79.0,75.71,1.0,-0.62,-0.61,-0.62,0.05,0.06,0.06,-0.79,-0.78,-0.78,0.0,5.0,19.0
72.0,73.0,72.29,1.0,0.21,0.22,0.22,-0.06,-0.05,-0.05,-0.98,-0.97,-0.97,0.0,0.0,19.0
75.0,77.0,76.17,1.0,-0.37,-0.36,-0.37,0.83,0.83,0.83,-0.43,-0.41,-0.42,0.0,5.0,19.0
67.0,67.0,67.0,1.0,0.09,0.1,0.1,0.67,0.68,0.67,-0.74,-0.73,-0.73,0.0,0.0,19.0
72.0,73.0,72.2,1.0,-0.62,-0.61,-0.61,0.14,0.16,0.15,-0.78,-0.77,-0.77,0.0,5.0,19.0
71.0,73.0,71.6,1.0,-0.64,-0.63,-0.63,0.13,0.15,0.14,-0.76,-0.76,-0.76,0.0,5.0,19.0
76.0,77.0,76.83,1.0,0.22,0.23,0.23,-0.34,-0.32,-0.33,-0.92,-0.91,-0.91,0.0,0.0,19.0
75.0,77.0,76.0,1.0,0.22,0.23,0.22,-0.05,-0.04,-0.05,-0.98,-0.96,-0.97,0.0,0.0,19.0
77.0,78.0,77.2,1.0,0.19,0.2,0.19,0.15,0.16,0.15,-0.97,-0.96,-0.97,0.0,0.0,19.0
76.0,77.0,76.5,1.0,-0.42,-0.42,-0.42,0.87,0.88,0.87,-0.24,-0.24,-0.24,0.0,5.0,19.0
68.0,72.0,70.5,1.0,0.22,0.23,0.22,-0.37,-0.36,-0.36,-0.91,-0.9,-0.9,0.0,5.0,19.0
77.0,81.0,78.83,1.0,-0.62,-0.61,-0.62,0.06,0.08,0.07,-0.79,-0.78,-0.78,0.0,0.0,19.0
72.0,73.0,72.17,1.0,0.64,0.66,0.65,0.2,0.22,0.21,-0.74,-0.72,-0.73,0.0,0.0,19.0
70.0,72.0,71.17,1.0,0.64,0.66,0.65,0.15,0.18,0.17,-0.75,-0.73,-0.74,0.0,0.0,19.0
68.0,79.0,73.2,1.0,-0.62,-0.61,-0.61,0.14,0.16,0.15,-0.78,-0.77,-0.77,0.0,5.0,19.0
74.0,77.0,76.17,1.0,-0.5,-0.49,-0.49,0.84,0.86,0.85,-0.2,-0.19,-0.19,0.0,5.0,19.0
75.0,77.0,76.71,1.0,0.25,0.26,0.25,-0.12,-0.12,-0.12,-0.96,-0.95,-0.96,0.0,0.0,19.0
70.0,76.0,73.17,1.0,-0.62,-0.61,-0.62,0.05,0.08,0.06,-0.79,-0.78,-0.78,0.0,5.0,19.0
72.0,75.0,73.33,1.0,-0.79,-0.78,-0.78,-0.04,-0.03,-0.03,-0.62,-0.61,-0.62,0.0,5.0,19.0
73.0,74.0,73.17,1.0,-0.64,-0.63,-0.63,0.12,0.14,0.13,-0.76,-0.76,-0.76,0.0,5.0,19.0
76.0,77.0,76.83,1.0,0.21,0.22,0.22,-0.36,-0.35,-0.36,-0.91,-0.9,-0.91,0.0,0.0,19.0
74.0,77.0,76.17,1.0,-0.43,-0.42,-0.42,0.87,0.88,0.87,-0.24,-0.24,-0.24,0.0,5.0,19.0
68.0,71.0,68.67,1.0,0.21,0.23,0.22,-0.06,-0.03,-0.05,-0.99,-0.97,-0.97,0.0,0.0,19.0
66.0,68.0,66.83,1.0,0.22,0.23,0.23,-0.05,-0.04,-0.05,-0.97,-0.97,-0.97,0.0,0.0,19.0
76.0,77.0,76.83,1.0,0.2,0.25,0.23,-0.36,-0.23,-0.33,-1.02,-0.87,-0.91,0.0,0.0,19.0
67.0,76.0,72.5,1.0,-0.78,-0.77,-0.77,-0.03,-0.02,-0.03,-0.63,-0.62,-0.63,0.0,5.0,19.0
69.0,77.0,73.0,1.0,0.23,0.24,0.23,-0.33,-0.33,-0.33,-0.92,-0.91,-0.91,0.0,0.0,19.0
63.0,66.0,64.5,1.0,0.13,0.15,0.14,0.27,0.29,0.27,-0.95,-0.94,-0.95,0.0,0.0,19.0
77.0,78.0,77.83,1.0,0.22,0.25,0.23,-0.16,-0.03,-0.06,-0.98,-0.95,-0.97,0.0,0.0,19.0
76.0,77.0,76.67,1.0,-0.61,-0.59,-0.6,-0.22,-0.19,-0.21,-0.78,-0.76,-0.77,0.0,0.0,19.0
77.0,77.0,77.0,1.0,0.23,0.24,0.24,-0.08,-0.07,-0.08,-0.97,-0.96,-0.97,0.0,0.0,19.0
72.0,77.0,74.67,1.0,0.22,0.23,0.23,-0.33,-0.32,-0.33,-0.92,-0.91,-0.92,0.0,0.0,19.0
77.0,81.0,78.67,1.0,0.22,0.23,0.23,-0.06,-0.04,-0.05,-0.98,-0.97,-0.97,0.0,0.0,19.0
73.0,75.0,74.0,1.0,0.64,0.66,0.65,0.17,0.22,0.18,-0.74,-0.73,-0.74,0.0,0.0,19.0
78.0,78.0,78.0,1.0,0.22,0.23,0.23,-0.36,-0.35,-0.36,-0.91,-0.9,-0.91,0.0,0.0,19.0
75.0,77.0,76.2,1.0,0.64,0.66,0.65,0.17,0.19,0.18,-0.74,-0.73,-0.74,0.0,0.0,19.0
61.0,65.0,61.8,1.0,0.13,0.14,0.14,0.27,0.28,0.28,-0.95,-0.94,-0.95,0.0,0.0,19.0
72.0,75.0,72.8,1.0,-0.36,-0.36,-0.36,0.82,0.82,0.82,-0.45,-0.44,-0.44,0.0,5.0,19.0
76.0,80.0,78.4,1.0,-0.39,-0.37,-0.38,0.82,0.83,0.83,-0.42,-0.41,-0.41,0.0,5.0,19.0
68.0,68.0,68.0,1.0,0.22,0.23,0.23,-0.05,-0.04,-0.05,-0.97,-0.97,-0.97,0.0,0.0,19.0
72.0,74.0,73.4,1.0,0.64,0.65,0.65,0.2,0.22,0.21,-0.74,-0.73,-0.73,0.0,0.0,19.0
77.0,80.0,79.17,1.0,0.19,0.2,0.19,0.15,0.16,0.15,-0.97,-0.96,-0.97,0.0,0.0,19.0
72.0,94.0,76.5,1.0,-0.78,-0.77,-0.77,-0.03,-0.02,-0.03,-0.63,-0.62,-0.63,0.0,5.0,19.0
72.0,75.0,73.6,1.0,0.22,0.24,0.23,-0.33,-0.32,-0.33,-0.92,-0.91,-0.92,0.0,0.0,19.0
75.0,79.0,77.33,1.0,-0.5,-0.49,-0.49,0.84,0.84,0.84,-0.24,-0.23,-0.23,0.0,5.0,19.0
70.0,74.0,71.33,1.0,0.22,0.23,0.23,-0.06,-0.05,-0.06,-0.98,-0.97,-0.97,0.0,0.0,19.0
74.0,77.0,76.5,1.0,-0.62,-0.61,-0.62,0.06,0.09,0.07,-0.8,-0.78,-0.78,0.0,5.0,19.0
71.0,75.0,72.86,1.0,-0.64,-0.63,-0.63,0.13,0.15,0.14,-0.77,-0.76,-0.76,0.0,5.0,19.0
76.0,79.0,77.86,1.01,-1.48,0.64,-0.09,-0.55,0.91,0.01,-0.97,0.82,-0.43,0.0,0.0,19.0
68.0,73.0,69.5,1.0,-0.58,-0.57,-0.57,-0.76,-0.75,-0.75,-0.33,-0.32,-0.32,0.0,5.0,19.0
66.0,70.0,67.8,1.0,0.22,0.23,0.22,-0.05,-0.04,-0.05,-0.97,-0.97,-0.97,0.0,0.0,19.0
59.0,64.0,62.0,1.0,0.22,0.23,0.22,-0.05,-0.05,-0.05,-0.97,-0.97,-0.97,0.0,0.0,19.0
70.0,76.0,73.71,1.0,-0.42,-0.42,-0.42,0.87,0.88,0.88,-0.25,-0.24,-0.24,0.0,5.0,19.0
71.0,75.0,72.67,1.0,-0.64,-0.63,-0.63,0.13,0.15,0.14,-0.76,-0.76,-0.76,0.0,5.0,19.0
75.0,80.0,76.8,1.0,0.53,0.58,0.56,0.05,0.09,0.06,-0.85,-0.81,-0.82,0.0,0.0,19.0
71.0,76.0,73.67,1.0,0.22,0.23,0.23,-0.34,-0.33,-0.33,-0.92,-0.91,-0.91,0.0,0.0,19.0
78.0,79.0,78.33,1.0,-0.62,-0.61,-0.62,0.06,0.08,0.07,-0.79,-0.78,-0.78,0.0,5.0,19.0
73.0,73.0,73.0,1.0,-0.64,-0.63,-0.63,0.13,0.15,0.14,-0.76,-0.75,-0.76,0.0,5.0,19.0
66.0,73.0,70.67,1.0,-0.62,-0.61,-0.61,0.15,0.16,0.16,-0.78,-0.77,-0.77,0.0,5.0,19.0
72.0,80.0,74.83,1.0,0.19,0.2,0.19,0.16,0.17,0.16,-0.97,-0.96,-0.97,0.0,0.0,19.0
69.0,75.0,72.17,1.0,0.22,0.23,0.22,-0.36,-0.35,-0.36,-0.91,-0.9,-0.91,0.0,0.0,19.0
68.0,73.0,70.5,1.0,-0.83,-0.81,-0.82,0.26,0.27,0.26,-0.51,-0.5,-0.51,0.0,0.0,19.0
68.0,74.0,71.17,1.0,-0.78,-0.76,-0.77,-0.04,-0.03,-0.04,-0.64,-0.63,-0.63,0.0,5.0,19.0
78.0,85.0,82.67,1.0,-0.62,-0.61,-0.62,0.06,0.08,0.07,-0.79,-0.78,-0.78,0.0,5.0,19.0
70.0,78.0,75.67,1.0,-0.06,0.25,0.17,-0.2,0.91,0.23,-0.99,-0.51,-0.93,0.0,0.0,19.0
77.0,79.0,78.17,1.0,-0.37,-0.36,-0.37,0.83,0.83,0.83,-0.42,-0.42,-0.42,0.0,5.0,19.0
73.0,76.0,74.5,1.0,0.22,0.23,0.23,-0.33,-0.32,-0.33,-0.92,-0.91,-0.92,0.0,0.0,19.0
68.0,74.0,70.33,1.0,-0.63,-0.62,-0.63,0.12,0.14,0.13,-0.77,-0.76,-0.76,0.0,0.0,19.0
67.0,74.0,69.67,1.0,-0.78,-0.77,-0.77,-0.04,-0.03,-0.03,-0.64,-0.63,-0.63,0.0,5.0,19.0
77.0,79.0,77.83,1.0,-0.38,-0.37,-0.38,0.82,0.83,0.83,-0.41,-0.41,-0.41,0.0,5.0,19.0
71.0,77.0,72.5,1.0,0.22,0.24,0.23,-0.06,-0.05,-0.06,-0.98,-0.97,-0.97,0.0,0.0,19.0
72.0,75.0,73.5,1.0,0.19,0.2,0.19,0.15,0.16,0.15,-0.97,-0.96,-0.97,0.0,0.0,19.0
68.0,71.0,69.83,1.0,0.55,0.57,0.56,0.05,0.08,0.06,-0.83,-0.82,-0.82,0.0,0.0,19.0
76.0,81.0,78.0,1.0,-0.59,-0.58,-0.58,-0.09,-0.08,-0.08,-0.81,-0.8,-0.81,1.0,3.0,19.0
76.0,80.0,77.6,1.0,-0.51,-0.5,-0.51,0.82,0.83,0.83,-0.25,-0.24,-0.25,1.0,2.0,19.0
76.0,77.0,76.17,1.0,-0.87,-0.56,-0.61,-0.76,-0.08,-0.17,-0.81,0.76,-0.63,1.0,2.0,19.0
75.0,77.0,75.29,1.0,-0.43,-0.42,-0.42,0.87,0.88,0.87,-0.24,-0.23,-0.24,1.0,2.0,19.0
82.0,85.0,83.71,1.0,-0.6,-0.59,-0.6,0.04,0.05,0.05,-0.8,-0.79,-0.8,1.0,2.0,19.0
64.0,70.0,67.83,1.0,-0.63,-0.62,-0.63,0.11,0.13,0.12,-0.77,-0.76,-0.77,1.0,2.0,19.0
78.0,84.0,80.83,1.0,-0.66,-0.5,-0.6,-0.12,0.53,0.09,-0.8,-0.75,-0.79,1.0,3.0,19.0
77.0,85.0,83.4,1.0,-0.59,-0.58,-0.58,-0.1,-0.08,-0.09,-0.81,-0.8,-0.81,1.0,3.0,19.0
78.0,83.0,80.5,1.0,-0.63,-0.62,-0.62,-0.0,0.01,0.01,-0.79,-0.78,-0.78,1.0,2.0,19.0
81.0,85.0,82.17,1.0,-0.59,-0.58,-0.58,-0.09,-0.08,-0.08,-0.81,-0.8,-0.81,1.0,3.0,19.0
71.0,77.0,75.17,1.0,-0.43,-0.43,-0.43,0.86,0.88,0.87,-0.24,-0.23,-0.24,1.0,2.0,19.0
72.0,86.0,75.83,1.0,-0.6,-0.59,-0.59,-0.68,-0.66,-0.67,-0.44,-0.43,-0.44,1.0,3.0,19.0
74.0,77.0,76.17,1.0,-0.51,-0.5,-0.51,0.82,0.83,0.83,-0.25,-0.24,-0.25,1.0,2.0,19.0
73.0,77.0,75.17,1.0,-0.6,-0.58,-0.59,-0.69,-0.67,-0.67,-0.44,-0.43,-0.44,1.0,3.0,19.0
79.0,82.0,80.83,1.0,-0.63,-0.62,-0.62,-0.0,0.01,0.01,-0.79,-0.78,-0.78,1.0,2.0,19.0
76.0,79.0,76.83,1.0,-0.61,-0.59,-0.6,0.11,0.12,0.12,-0.79,-0.78,-0.79,1.0,3.0,19.0
74.0,77.0,75.5,1.0,-0.36,-0.35,-0.36,0.81,0.83,0.82,-0.45,-0.44,-0.45,1.0,2.0,19.0
73.0,84.0,75.5,1.0,-0.52,-0.51,-0.51,0.82,0.83,0.83,-0.24,-0.23,-0.23,1.0,2.0,19.0
72.0,76.0,73.8,1.0,-0.51,-0.5,-0.51,0.82,0.83,0.83,-0.25,-0.24,-0.25,1.0,3.0,19.0
68.0,71.0,69.17,1.0,-0.6,-0.59,-0.6,0.05,0.06,0.05,-0.8,-0.8,-0.8,1.0,2.0,19.0
76.0,77.0,76.33,1.0,-0.43,-0.43,-0.43,0.86,0.87,0.87,-0.25,-0.24,-0.24,1.0,3.0,19.0
73.0,74.0,73.8,1.0,-0.36,-0.35,-0.36,0.82,0.82,0.82,-0.45,-0.44,-0.45,1.0,2.0,19.0
64.0,68.0,66.2,1.0,0.09,0.1,0.09,0.65,0.68,0.68,-0.74,-0.72,-0.73,1.0,2.0,19.0
68.0,71.0,68.5,1.0,-0.61,-0.59,-0.6,0.06,0.08,0.07,-0.8,-0.79,-0.8,1.0,2.0,19.0
77.0,78.0,77.17,1.0,-1.07,-0.24,-0.53,-0.99,0.26,-0.64,-0.85,0.25,-0.43,1.0,3.0,19.0
74.0,75.0,74.5,1.0,-0.51,-0.5,-0.51,0.82,0.83,0.83,-0.25,-0.24,-0.25,1.0,3.0,19.0
76.0,78.0,77.0,1.0,-0.61,-0.6,-0.6,0.11,0.12,0.12,-0.79,-0.79,-0.79,1.0,3.0,19.0
71.0,74.0,72.86,1.0,-0.62,-0.6,-0.62,-0.02,0.02,-0.0,-0.8,-0.78,-0.79,1.0,2.0,19.0
77.0,80.0,77.83,1.0,-0.59,-0.58,-0.58,-0.09,-0.08,-0.09,-0.81,-0.8,-0.81,1.0,2.0,19.0
68.0,68.0,68.0,1.0,-0.63,-0.63,-0.63,0.1,0.11,0.11,-0.78,-0.76,-0.77,1.0,2.0,19.0
68.0,72.0,70.17,1.0,-0.6,-0.59,-0.6,0.05,0.06,0.05,-0.8,-0.8,-0.8,1.0,2.0,19.0
75.0,76.0,75.67,1.0,-0.51,-0.5,-0.51,0.82,0.83,0.83,-0.25,-0.24,-0.25,1.0,3.0,19.0
75.0,77.0,76.0,1.0,-0.51,-0.5,-0.51,0.82,0.83,0.83,-0.25,-0.24,-0.25,1.0,2.0,19.0
84.0,86.0,84.5,1.0,-0.61,-0.6,-0.61,0.03,0.05,0.04,-0.8,-0.79,-0.79,1.0,2.0,19.0
74.0,78.0,76.67,1.0,-0.44,-0.43,-0.44,0.86,0.87,0.87,-0.24,-0.24,-0.24,1.0,3.0,19.0
68.0,73.0,70.57,1.0,-0.52,-0.51,-0.51,0.82,0.83,0.83,-0.24,-0.23,-0.23,1.0,2.0,19.0
75.0,78.0,75.8,1.0,-0.45,-0.44,-0.44,0.86,0.87,0.86,-0.24,-0.23,-0.24,1.0,3.0,19.0
73.0,77.0,76.0,1.0,-0.43,-0.43,-0.43,0.86,0.87,0.87,-0.25,-0.24,-0.24,1.0,3.0,19.0
73.0,79.0,76.17,1.0,-0.36,-0.35,-0.36,0.82,0.82,0.82,-0.45,-0.44,-0.45,1.0,2.0,19.0
72.0,75.0,74.0,1.0,-0.51,-0.5,-0.51,0.82,0.83,0.83,-0.25,-0.24,-0.25,1.0,3.0,19.0
77.0,77.0,77.0,1.0,-0.36,-0.35,-0.36,0.82,0.82,0.82,-0.45,-0.44,-0.45,1.0,2.0,19.0
69.0,72.0,71.0,1.0,-0.54,-0.54,-0.54,0.82,0.83,0.83,-0.18,-0.17,-0.18,1.0,2.0,19.0
70.0,74.0,72.17,1.0,-0.54,-0.54,-0.54,0.82,0.83,0.82,-0.18,-0.18,-0.18,1.0,2.0,19.0
66.0,70.0,68.83,1.0,-0.6,-0.59,-0.6,0.06,0.08,0.07,-0.8,-0.79,-0.8,1.0,2.0,19.0
75.0,79.0,76.83,1.0,-0.61,-0.6,-0.6,0.11,0.12,0.12,-0.79,-0.78,-0.79,1.0,3.0,19.0
73.0,75.0,74.5,1.0,-0.51,-0.5,-0.51,0.82,0.83,0.83,-0.25,-0.24,-0.25,1.0,3.0,19.0
69.0,73.0,70.33,1.0,-0.6,-0.59,-0.6,0.05,0.07,0.06,-0.8,-0.79,-0.8,1.0,2.0,19.0
66.0,71.0,68.8,1.0,-0.47,-0.45,-0.46,0.57,0.58,0.58,-0.68,-0.67,-0.67,1.0,1.0,19.0
74.0,77.0,76.2,1.0,-0.51,-0.5,-0.51,0.82,0.83,0.83,-0.25,-0.24,-0.25,1.0,2.0,19.0
73.0,77.0,74.4,1.0,-0.59,-0.58,-0.58,-0.09,-0.08,-0.09,-0.81,-0.8,-0.81,1.0,2.0,19.0
74.0,77.0,76.0,1.0,-0.51,-0.5,-0.51,0.82,0.83,0.83,-0.25,-0.24,-0.25,1.0,2.0,19.0
66.0,66.0,66.0,1.0,-0.18,-0.17,-0.17,0.31,0.32,0.31,-0.94,-0.93,-0.94,0.0,5.0,30.0
68.0,72.0,70.6,1.0,0.74,0.75,0.74,0.51,0.53,0.52,-0.43,-0.41,-0.43,0.0,0.0,30.0
70.0,71.0,70.17,1.0,-0.1,-0.09,-0.1,0.54,0.54,0.54,-0.84,-0.84,-0.84,0.0,0.0,30.0
67.0,68.0,67.5,1.0,-0.68,-0.68,-0.68,-0.73,-0.72,-0.72,-0.11,-0.1,-0.1,0.0,5.0,30.0
67.0,68.0,67.17,1.0,-0.68,-0.68,-0.68,-0.73,-0.72,-0.72,-0.11,-0.1,-0.1,0.0,5.0,30.0
72.0,77.0,74.17,1.01,-0.19,-0.19,-0.19,0.89,0.9,0.89,-0.42,-0.42,-0.42,0.0,5.0,30.0
66.0,67.0,66.17,1.0,0.44,0.45,0.44,-0.81,-0.8,-0.81,-0.39,-0.37,-0.38,0.0,5.0,30.0
74.0,79.0,75.83,1.0,-0.81,0.74,-0.31,-0.69,0.5,0.06,-1.03,-0.41,-0.92,0.0,5.0,30.0
74.0,83.0,79.67,1.0,0.42,0.43,0.42,-0.72,-0.71,-0.72,-0.55,-0.54,-0.55,0.0,5.0,30.0
70.0,77.0,72.2,1.0,0.17,0.18,0.17,-0.62,-0.61,-0.62,-0.77,-0.76,-0.77,0.0,5.0,30.0
77.0,78.0,77.8,1.0,0.45,0.45,0.45,-0.81,-0.8,-0.81,-0.37,-0.36,-0.37,0.0,5.0,30.0
68.0,73.0,69.67,1.01,-0.19,-0.18,-0.19,0.89,0.9,0.89,-0.42,-0.42,-0.42,0.0,5.0,30.0
71.0,76.0,73.5,1.0,-0.1,-0.09,-0.1,0.54,0.55,0.55,-0.84,-0.84,-0.84,0.0,5.0,30.0
59.0,72.0,66.67,1.0,0.78,0.79,0.78,-0.04,-0.04,-0.04,-0.63,-0.62,-0.62,0.0,5.0,30.0
66.0,69.0,67.2,1.0,0.44,0.45,0.45,-0.81,-0.8,-0.81,-0.38,-0.37,-0.38,0.0,5.0,30.0
66.0,67.0,66.67,1.0,-0.18,-0.17,-0.17,0.31,0.32,0.31,-0.94,-0.93,-0.94,0.0,5.0,30.0
68.0,68.0,68.0,1.0,0.07,0.08,0.08,-0.43,-0.42,-0.43,-0.9,-0.89,-0.9,0.0,0.0,30.0
74.0,75.0,74.8,1.0,0.45,0.46,0.46,-0.81,-0.8,-0.81,-0.37,-0.36,-0.36,0.0,5.0,30.0
71.0,75.0,72.6,1.0,-0.1,-0.09,-0.1,0.53,0.54,0.54,-0.85,-0.84,-0.84,0.0,0.0,30.0
68.0,83.0,71.5,1.0,0.42,0.43,0.43,-0.73,-0.72,-0.72,-0.54,-0.53,-0.54,0.0,5.0,30.0
67.0,67.0,67.0,1.0,-0.68,-0.68,-0.68,-0.73,-0.72,-0.72,-0.11,-0.1,-0.1,0.0,5.0,30.0
67.0,68.0,67.57,1.0,-0.68,-0.68,-0.68,-0.73,-0.72,-0.72,-0.1,-0.1,-0.1,0.0,5.0,30.0
65.0,68.0,66.67,1.0,-0.28,-0.28,-0.28,-0.23,-0.22,-0.22,-0.94,-0.93,-0.93,0.0,5.0,30.0
67.0,69.0,67.83,1.0,-0.28,-0.28,-0.28,-0.23,-0.22,-0.22,-0.94,-0.93,-0.93,0.0,5.0,30.0
66.0,67.0,66.6,1.0,-0.18,-0.17,-0.17,0.31,0.32,0.31,-0.94,-0.93,-0.94,0.0,5.0,30.0
68.0,69.0,68.17,1.0,0.07,0.08,0.08,-0.44,-0.43,-0.43,-0.9,-0.89,-0.9,0.0,0.0,30.0
66.0,67.0,66.67,1.0,0.09,0.1,0.09,-0.43,-0.43,-0.43,-0.9,-0.9,-0.9,0.0,0.0,30.0
74.0,80.0,77.4,1.0,0.42,0.43,0.43,-0.72,-0.71,-0.72,-0.55,-0.54,-0.54,0.0,5.0,30.0
67.0,68.0,67.67,1.0,0.07,0.08,0.08,-0.44,-0.43,-0.43,-0.9,-0.89,-0.9,0.0,0.0,30.0
67.0,68.0,67.33,1.0,-0.68,-0.68,-0.68,-0.73,-0.72,-0.72,-0.11,-0.1,-0.1,0.0,5.0,30.0
70.0,77.0,72.83,1.0,0.74,0.74,0.74,0.52,0.53,0.52,-0.43,-0.42,-0.43,0.0,5.0,30.0
68.0,68.0,68.0,1.0,-0.68,-0.67,-0.68,-0.73,-0.72,-0.72,-0.11,-0.1,-0.1,0.0,5.0,30.0
70.0,71.0,70.83,1.0,-0.1,-0.09,-0.1,0.54,0.54,0.54,-0.84,-0.84,-0.84,0.0,5.0,30.0
71.0,77.0,74.0,1.0,0.17,0.18,0.17,-0.62,-0.62,-0.62,-0.77,-0.76,-0.76,0.0,5.0,30.0
71.0,75.0,72.67,1.0,0.78,0.79,0.78,-0.04,-0.04,-0.04,-0.62,-0.61,-0.62,1.0,2.0,30.0
77.0,79.0,77.6,1.0,0.16,0.17,0.17,-0.63,-0.62,-0.63,-0.76,-0.75,-0.76,1.0,2.0,30.0
65.0,70.0,67.33,1.01,-1.29,0.08,-0.27,-0.77,0.9,-0.22,-0.15,1.11,0.8,1.0,2.0,30.0
69.0,70.0,69.67,1.0,0.07,0.08,0.08,-0.44,-0.43,-0.43,-0.9,-0.89,-0.9,1.0,2.0,30.0
66.0,68.0,67.17,1.0,-0.11,-0.1,-0.1,0.42,0.43,0.43,-0.91,-0.9,-0.9,1.0,2.0,30.0
66.0,68.0,67.0,1.0,-0.53,-0.52,-0.53,0.17,0.19,0.18,-0.84,-0.83,-0.83,1.0,2.0,30.0
75.0,81.0,77.4,1.0,0.78,0.79,0.78,-0.04,-0.04,-0.04,-0.62,-0.61,-0.62,1.0,3.0,30.0
69.0,70.0,69.8,1.0,0.07,0.08,0.08,-0.44,-0.43,-0.43,-0.9,-0.89,-0.9,1.0,2.0,30.0
64.0,65.0,64.4,1.0,-0.08,-0.08,-0.08,0.28,0.28,0.28,-0.96,-0.96,-0.96,1.0,2.0,30.0
70.0,71.0,70.67,1.0,0.75,0.76,0.75,-0.03,-0.03,-0.03,-0.66,-0.65,-0.66,1.0,2.0,30.0
68.0,69.0,68.17,1.0,-0.1,-0.1,-0.1,0.33,0.42,0.42,-0.94,-0.9,-0.91,1.0,2.0,30.0
67.0,69.0,67.5,1.0,0.74,0.75,0.74,0.52,0.53,0.52,-0.43,-0.42,-0.43,1.0,1.0,30.0
66.0,69.0,67.17,1.0,-0.1,-0.09,-0.1,0.4,0.41,0.4,-0.92,-0.91,-0.91,1.0,2.0,30.0
74.0,82.0,77.67,1.0,0.78,0.79,0.79,-0.04,-0.04,-0.04,-0.62,-0.61,-0.62,1.0,2.0,30.0
70.0,72.0,70.67,1.0,-0.71,-0.18,-0.33,-0.04,0.7,0.23,-1.09,-0.26,-0.9,1.0,2.0,30.0
59.0,63.0,61.0,1.0,-0.02,-0.01,-0.02,-0.04,-0.03,-0.04,-1.01,-1.0,-1.0,1.0,2.0,30.0
63.0,66.0,64.17,1.0,-0.15,-0.14,-0.14,0.37,0.38,0.38,-0.92,-0.92,-0.92,1.0,2.0,30.0
69.0,70.0,69.17,1.0,0.07,0.08,0.08,-0.44,-0.43,-0.43,-0.9,-0.89,-0.9,1.0,1.0,30.0
68.0,68.0,68.0,1.0,-0.03,-0.03,-0.03,-0.01,-0.01,-0.01,0.99,1.0,1.0,1.0,1.0,30.0
67.0,68.0,67.67,1.0,-0.03,-0.03,-0.03,-0.01,-0.01,-0.01,0.99,1.0,1.0,1.0,1.0,30.0
67.0,67.0,67.0,1.0,-0.03,-0.03,-0.03,-0.01,-0.01,-0.01,0.99,1.0,1.0,1.0,1.0,30.0
70.0,73.0,72.17,1.0,0.78,0.79,0.78,-0.04,-0.04,-0.04,-0.62,-0.61,-0.62,1.0,2.0,30.0
68.0,70.0,69.29,1.0,0.78,0.79,0.78,-0.05,-0.04,-0.04,-0.63,-0.62,-0.62,1.0,1.0,30.0
66.0,68.0,66.83,1.0,-0.03,-0.03,-0.03,-0.01,-0.01,-0.01,0.99,1.0,1.0,1.0,1.0,30.0
67.0,70.0,69.5,1.01,-0.99,0.07,-0.47,-1.32,0.47,0.06,-1.04,0.64,-0.69,1.0,2.0,30.0
68.0,73.0,70.0,1.0,0.8,0.81,0.8,0.08,0.1,0.09,-0.59,-0.57,-0.59,1.0,2.0,30.0
69.0,70.0,69.6,1.0,0.74,0.74,0.74,0.52,0.53,0.53,-0.43,-0.42,-0.42,1.0,2.0,30.0
65.0,70.0,67.4,1.0,0.78,0.85,0.81,0.08,0.33,0.17,-0.6,-0.5,-0.55,1.0,2.0,30.0
67.0,68.0,67.17,1.0,-0.1,-0.1,-0.1,0.42,0.42,0.42,-0.91,-0.9,-0.9,1.0,2.0,30.0
76.0,81.0,78.5,1.0,-0.1,-0.09,-0.1,0.4,0.4,0.4,-0.92,-0.91,-0.92,1.0,2.0,30.0
60.0,64.0,62.4,1.01,-0.18,-0.17,-0.17,0.72,0.73,0.73,-0.68,-0.67,-0.67,1.0,2.0,30.0
68.0,68.0,68.0,1.0,-0.1,-0.09,-0.1,0.4,0.41,0.4,-0.92,-0.91,-0.91,1.0,2.0,30.0
68.0,85.0,76.0,1.0,-0.36,-0.35,-0.35,0.17,0.18,0.18,-0.93,-0.91,-0.92,1.0,2.0,30.0
80.0,86.0,82.67,1.0,-0.3,-0.29,-0.3,0.11,0.12,0.11,-0.95,-0.95,-0.95,1.0,3.0,30.0
64.0,64.0,64.0,1.0,-0.09,-0.09,-0.09,0.27,0.28,0.28,-0.96,-0.96,-0.96,1.0,2.0,30.0
66.0,74.0,70.4,1.0,-0.03,-0.03,-0.03,-0.01,-0.0,-0.01,0.99,1.0,1.0,1.0,2.0,30.0
68.0,70.0,68.67,1.0,-0.22,-0.22,-0.22,0.33,0.35,0.34,-0.92,-0.91,-0.92,1.0,2.0,30.0
70.0,79.0,73.5,1.0,0.78,0.79,0.79,-0.04,-0.04,-0.04,-0.62,-0.61,-0.62,1.0,2.0,30.0
70.0,71.0,70.6,1.0,0.07,0.08,0.08,-0.44,-0.43,-0.43,-0.9,-0.89,-0.9,1.0,1.0,30.0
66.0,68.0,67.0,1.0,-0.15,-0.14,-0.14,0.38,0.39,0.38,-0.92,-0.91,-0.92,1.0,2.0,30.0
68.0,68.0,68.0,0.99,-0.04,-0.03,-0.04,-0.41,-0.41,-0.41,0.9,0.91,0.91,1.0,2.0,30.0
67.0,68.0,67.33,1.0,-0.1,-0.09,-0.1,0.4,0.41,0.4,-0.92,-0.91,-0.91,1.0,2.0,30.0
77.0,88.0,84.5,1.0,-0.1,-0.1,-0.1,0.4,0.4,0.4,-0.92,-0.91,-0.91,1.0,2.0,30.0
63.0,65.0,63.83,1.0,-0.09,-0.08,-0.09,0.28,0.28,0.28,-0.96,-0.96,-0.96,1.0,2.0,30.0
46.0,48.0,47.2,1.0,0.18,0.19,0.19,-0.23,-0.21,-0.22,-0.96,-0.95,-0.95,0.0,5.0,10.0
73.0,82.0,77.2,1.0,0.56,0.58,0.57,-0.0,0.01,0.0,-0.83,-0.81,-0.82,0.0,5.0,10.0
51.0,51.0,51.0,0.99,-1.0,-0.31,-0.47,-0.03,0.28,0.24,-0.89,0.06,-0.75,0.0,0.0,10.0
48.0,49.0,48.83,0.99,-0.58,-0.57,-0.57,0.19,0.21,0.2,-0.79,-0.78,-0.79,0.0,0.0,10.0
50.0,51.0,50.67,0.99,-0.48,-0.46,-0.47,-0.0,0.02,0.01,-0.88,-0.87,-0.87,0.0,5.0,10.0
44.0,44.0,44.0,1.0,0.56,0.57,0.57,0.0,0.01,0.0,-0.83,-0.82,-0.82,0.0,5.0,10.0
50.0,63.0,58.33,0.99,-0.45,-0.44,-0.45,0.16,0.18,0.17,-0.88,-0.87,-0.87,0.0,5.0,10.0
44.0,45.0,44.2,0.99,-0.36,-0.35,-0.35,-0.09,-0.07,-0.08,-0.93,-0.92,-0.92,0.0,5.0,10.0
45.0,46.0,45.5,1.0,0.44,0.45,0.44,-0.41,-0.39,-0.4,-0.8,-0.79,-0.8,0.0,0.0,10.0
47.0,48.0,47.83,1.0,0.18,0.19,0.19,-0.23,-0.21,-0.22,-0.96,-0.95,-0.95,0.0,5.0,10.0
49.0,50.0,49.71,0.99,-0.36,-0.35,-0.35,-0.09,-0.07,-0.08,-0.93,-0.92,-0.92,0.0,5.0,10.0
82.0,83.0,82.83,1.0,0.56,0.58,0.57,-0.0,0.01,0.0,-0.83,-0.81,-0.82,0.0,5.0,10.0
43.0,55.0,46.71,1.0,0.16,0.17,0.17,-0.24,-0.21,-0.22,-0.97,-0.95,-0.96,0.0,5.0,10.0
50.0,50.0,50.0,0.99,-0.58,-0.57,-0.57,0.19,0.21,0.2,-0.79,-0.78,-0.79,0.0,0.0,10.0
73.0,74.0,73.33,1.0,0.16,0.17,0.16,-0.24,-0.22,-0.23,-0.96,-0.95,-0.96,0.0,5.0,10.0
45.0,47.0,46.0,1.0,0.57,0.58,0.58,0.01,0.02,0.01,-0.82,-0.81,-0.82,0.0,0.0,10.0
46.0,46.0,46.0,1.0,0.45,0.49,0.47,-0.44,-0.39,-0.41,-0.79,-0.75,-0.78,0.0,0.0,10.0
45.0,46.0,45.5,0.99,-0.22,0.44,0.36,-0.41,1.04,-0.04,-1.13,-0.17,-0.79,0.0,0.0,10.0
43.0,49.0,47.17,1.0,0.18,0.19,0.18,-0.23,-0.21,-0.22,-0.96,-0.95,-0.96,0.0,5.0,10.0
45.0,46.0,45.6,1.0,0.42,0.43,0.43,-0.17,-0.16,-0.16,-0.89,-0.88,-0.89,0.0,0.0,10.0
50.0,50.0,50.0,0.99,-0.47,-0.46,-0.47,-0.0,0.02,0.01,-0.88,-0.87,-0.88,0.0,5.0,10.0
46.0,49.0,47.17,0.99,-0.36,-0.34,-0.34,-0.16,-0.14,-0.15,-0.93,-0.91,-0.92,0.0,5.0,10.0
47.0,48.0,47.5,0.99,-0.47,-0.46,-0.47,-0.12,-0.09,-0.1,-0.88,-0.86,-0.87,0.0,0.0,10.0
48.0,66.0,59.71,0.99,-0.35,-0.34,-0.34,-0.16,-0.14,-0.15,-0.92,-0.92,-0.92,0.0,5.0,10.0
46.0,47.0,46.5,1.0,0.19,0.2,0.19,-0.23,-0.22,-0.22,-0.96,-0.95,-0.95,0.0,5.0,10.0
45.0,46.0,45.33,1.0,0.18,0.19,0.19,-0.23,-0.21,-0.22,-0.97,-0.95,-0.95,0.0,5.0,10.0
46.0,53.0,47.8,1.0,0.16,0.18,0.17,-0.23,-0.21,-0.22,-0.97,-0.95,-0.96,0.0,5.0,10.0
64.0,71.0,67.4,0.99,-0.36,-0.35,-0.35,-0.09,-0.07,-0.08,-0.93,-0.92,-0.92,0.0,5.0,10.0
49.0,50.0,49.67,0.99,-0.9,-0.59,-0.61,0.01,0.16,0.14,-0.79,-0.37,-0.77,0.0,0.0,10.0
48.0,64.0,56.6,0.99,-0.51,-0.33,-0.36,-0.2,-0.04,-0.14,-0.94,-0.81,-0.92,0.0,5.0,10.0
48.0,50.0,49.0,0.99,-0.58,-0.57,-0.57,0.19,0.21,0.2,-0.79,-0.78,-0.79,0.0,0.0,10.0
62.0,68.0,64.8,0.99,-0.36,-0.35,-0.35,-0.09,-0.07,-0.08,-0.93,-0.92,-0.93,0.0,5.0,10.0
45.0,45.0,45.0,1.0,0.16,0.17,0.16,-0.24,-0.22,-0.23,-0.96,-0.95,-0.96,0.0,5.0,10.0
49.0,56.0,51.5,0.99,-0.39,-0.38,-0.38,0.24,0.26,0.26,-0.88,-0.87,-0.88,0.0,0.0,10.0
44.0,47.0,45.67,1.0,0.42,0.43,0.42,-0.17,-0.16,-0.16,-0.89,-0.88,-0.89,0.0,0.0,10.0
72.0,78.0,73.67,1.0,0.56,0.58,0.57,-0.0,0.0,-0.0,-0.83,-0.81,-0.82,0.0,5.0,10.0
66.0,69.0,68.17,0.99,-0.58,-0.57,-0.57,0.2,0.21,0.2,-0.79,-0.78,-0.79,0.0,0.0,10.0
47.0,47.0,47.0,1.0,0.56,0.58,0.57,0.01,0.02,0.01,-0.82,-0.81,-0.82,0.0,5.0,10.0
44.0,47.0,45.6,0.99,-0.35,-0.35,-0.35,-0.09,-0.08,-0.09,-0.93,-0.92,-0.93,0.0,5.0,10.0
50.0,50.0,50.0,0.99,-0.42,-0.37,-0.39,-0.1,-0.07,-0.08,-0.92,-0.89,-0.91,0.0,0.0,10.0
49.0,50.0,49.33,0.99,-0.58,-0.57,-0.57,0.19,0.21,0.2,-0.79,-0.78,-0.79,0.0,0.0,10.0
65.0,73.0,66.83,1.0,0.56,0.58,0.57,-0.0,0.0,0.0,-0.83,-0.81,-0.82,0.0,5.0,10.0
48.0,49.0,48.5,0.99,-0.36,-0.35,-0.36,-0.09,-0.07,-0.08,-0.93,-0.92,-0.92,0.0,5.0,10.0
45.0,47.0,46.33,1.0,0.19,0.2,0.19,-0.23,-0.21,-0.22,-0.96,-0.95,-0.95,0.0,5.0,10.0
45.0,45.0,45.0,1.0,0.16,0.17,0.16,-0.24,-0.22,-0.23,-0.96,-0.95,-0.96,0.0,5.0,10.0
46.0,47.0,46.6,1.0,-0.7,0.18,0.02,-0.71,-0.06,-0.27,-0.99,1.05,-0.69,0.0,0.0,10.0
68.0,71.0,68.83,0.99,-0.36,-0.34,-0.35,-0.09,-0.07,-0.08,-0.93,-0.92,-0.92,0.0,5.0,10.0
51.0,51.0,51.0,0.99,-0.47,-0.46,-0.47,-0.0,0.02,0.01,-0.88,-0.87,-0.88,0.0,5.0,10.0
50.0,50.0,50.0,0.99,-0.47,-0.46,-0.47,0.0,0.02,0.01,-0.88,-0.87,-0.88,0.0,0.0,10.0
64.0,68.0,66.33,0.99,-0.58,-0.57,-0.57,0.19,0.21,0.2,-0.79,-0.78,-0.79,0.0,0.0,10.0
51.0,55.0,52.6,0.99,-0.7,-0.68,-0.69,-0.72,-0.69,-0.71,-0.16,-0.08,-0.12,0.0,0.0,10.0
46.0,46.0,46.0,1.0,0.19,0.21,0.2,-0.23,-0.22,-0.22,-0.96,-0.94,-0.95,0.0,5.0,10.0
47.0,48.0,47.43,0.99,-0.43,-0.42,-0.43,0.01,0.03,0.02,-0.9,-0.89,-0.9,0.0,0.0,10.0
47.0,48.0,47.57,1.0,0.42,0.43,0.42,-0.17,-0.15,-0.16,-0.89,-0.88,-0.89,0.0,0.0,10.0
49.0,50.0,49.8,0.99,-0.58,-0.57,-0.57,0.19,0.21,0.2,-0.79,-0.78,-0.79,0.0,0.0,10.0
44.0,46.0,45.33,1.0,0.2,0.21,0.2,-0.23,-0.22,-0.22,-0.96,-0.94,-0.95,0.0,5.0,10.0
48.0,49.0,48.67,1.0,-0.16,-0.15,-0.15,0.82,0.83,0.82,-0.54,-0.53,-0.54,1.0,2.0,10.0
46.0,47.0,46.83,1.0,0.24,0.58,0.43,-0.16,0.12,-0.13,-1.1,-0.67,-0.89,1.0,2.0,10.0
47.0,48.0,47.83,0.99,-0.47,-0.46,-0.46,0.0,0.02,0.01,-0.88,-0.87,-0.88,1.0,3.0,10.0
48.0,49.0,48.33,0.99,-0.58,-0.57,-0.57,0.19,0.21,0.2,-0.79,-0.78,-0.79,1.0,2.0,10.0
46.0,48.0,46.8,1.0,0.57,0.58,0.58,0.01,0.01,0.01,-0.82,-0.81,-0.82,1.0,2.0,10.0
48.0,48.0,48.0,0.99,-0.61,-0.59,-0.6,-0.11,-0.07,-0.08,-0.8,-0.77,-0.79,1.0,1.0,10.0
81.0,84.0,82.2,1.0,0.57,0.58,0.57,0.01,0.01,0.01,-0.82,-0.81,-0.82,1.0,2.0,10.0
85.0,87.0,85.83,1.0,0.24,0.25,0.25,-0.23,-0.21,-0.22,-0.95,-0.94,-0.94,1.0,1.0,10.0
59.0,75.0,64.0,1.0,0.57,0.58,0.57,0.01,0.01,0.01,-0.82,-0.81,-0.82,1.0,2.0,10.0
47.0,48.0,47.17,1.0,0.57,0.58,0.58,0.0,0.01,0.01,-0.82,-0.81,-0.82,1.0,2.0,10.0
44.0,45.0,44.67,0.99,-0.45,-0.44,-0.45,0.06,0.08,0.07,-0.89,-0.88,-0.88,1.0,3.0,10.0
50.0,50.0,50.0,0.99,-0.58,-0.57,-0.57,0.19,0.21,0.2,-0.79,-0.78,-0.79,1.0,2.0,10.0
45.0,48.0,46.0,1.0,-0.05,-0.04,-0.05,-0.67,-0.66,-0.67,0.74,0.75,0.74,1.0,2.0,10.0
51.0,61.0,55.2,0.99,-0.56,-0.55,-0.56,0.11,0.14,0.12,-0.82,-0.81,-0.81,1.0,2.0,10.0
45.0,49.0,47.2,1.0,0.56,0.58,0.56,0.02,0.02,0.02,-0.83,-0.81,-0.82,1.0,2.0,10.0
47.0,50.0,48.0,1.0,-0.06,-0.05,-0.05,-0.66,-0.65,-0.65,0.75,0.76,0.76,1.0,2.0,10.0
48.0,49.0,48.6,0.99,-0.58,-0.57,-0.58,0.1,0.15,0.14,-0.8,-0.79,-0.8,1.0,2.0,10.0
47.0,50.0,48.0,0.99,-0.43,-0.42,-0.43,0.02,0.03,0.03,-0.9,-0.89,-0.89,1.0,2.0,10.0
46.0,52.0,49.5,0.99,-0.47,-0.46,-0.47,0.0,0.02,0.01,-0.88,-0.87,-0.88,1.0,2.0,10.0
43.0,45.0,43.83,1.0,0.57,0.58,0.57,0.01,0.01,0.01,-0.82,-0.81,-0.82,1.0,2.0,10.0
46.0,48.0,46.67,0.99,-0.43,-0.42,-0.43,0.01,0.03,0.02,-0.9,-0.89,-0.89,1.0,2.0,10.0
48.0,55.0,52.29,0.99,-0.47,-0.46,-0.47,-0.0,0.02,0.01,-0.88,-0.87,-0.88,1.0,1.0,10.0
47.0,49.0,47.71,1.0,-0.07,-0.06,-0.06,-0.64,-0.63,-0.63,0.77,0.78,0.77,1.0,3.0,10.0
60.0,100.0,84.4,0.99,-0.47,-0.46,-0.46,0.0,0.02,0.01,-0.88,-0.87,-0.88,1.0,3.0,10.0
49.0,49.0,49.0,0.99,-0.59,-0.57,-0.58,0.12,0.14,0.13,-0.8,-0.79,-0.8,1.0,2.0,10.0
43.0,47.0,45.0,1.0,0.57,0.58,0.58,0.01,0.01,0.01,-0.82,-0.8,-0.82,1.0,2.0,10.0
83.0,94.0,89.33,0.99,-0.48,-0.47,-0.47,0.45,0.46,0.45,-0.75,-0.74,-0.75,1.0,2.0,10.0
47.0,50.0,49.0,1.0,0.55,0.58,0.56,0.02,0.04,0.03,-0.83,-0.81,-0.82,1.0,2.0,10.0
64.0,66.0,65.17,0.99,-0.58,-0.57,-0.57,0.2,0.21,0.2,-0.79,-0.78,-0.79,1.0,1.0,10.0
52.0,55.0,53.0,0.99,-0.56,-0.55,-0.55,0.11,0.13,0.12,-0.82,-0.81,-0.81,1.0,2.0,10.0
95.0,95.0,95.0,0.99,-0.44,-0.43,-0.44,0.09,0.1,0.1,-0.89,-0.88,-0.89,1.0,2.0,10.0
48.0,48.0,48.0,0.99,-0.43,-0.42,-0.43,0.01,0.03,0.02,-0.9,-0.89,-0.9,1.0,2.0,10.0
46.0,47.0,46.5,1.0,0.42,0.43,0.42,-0.17,-0.16,-0.16,-0.89,-0.88,-0.89,1.0,1.0,10.0
49.0,49.0,49.0,0.99,-0.47,-0.46,-0.47,0.0,0.02,0.01,-0.88,-0.87,-0.88,1.0,2.0,10.0
48.0,50.0,48.83,0.99,-0.47,-0.46,-0.46,0.0,0.02,0.01,-0.88,-0.87,-0.88,1.0,2.0,10.0
50.0,51.0,50.4,1.0,-0.57,0.8,-0.19,-1.08,0.67,-0.28,-1.05,0.44,-0.69,1.0,2.0,10.0
48.0,48.0,48.0,1.0,-0.06,-0.06,-0.06,-0.65,-0.64,-0.64,0.76,0.77,0.76,1.0,2.0,10.0
48.0,48.0,48.0,1.0,0.56,0.57,0.56,0.02,0.02,0.02,-0.83,-0.82,-0.82,1.0,2.0,10.0
47.0,47.0,47.0,1.0,0.56,0.58,0.57,0.01,0.02,0.01,-0.83,-0.81,-0.82,1.0,2.0,10.0
47.0,47.0,47.0,1.0,-0.07,-0.06,-0.06,-0.64,-0.63,-0.63,0.76,0.78,0.77,1.0,3.0,10.0
48.0,49.0,48.8,0.99,-0.43,-0.42,-0.43,0.01,0.03,0.02,-0.9,-0.89,-0.9,1.0,2.0,10.0
46.0,47.0,46.6,1.0,0.42,0.43,0.42,-0.17,-0.16,-0.16,-0.89,-0.88,-0.89,1.0,1.0,10.0
47.0,49.0,47.8,0.99,-0.59,-0.58,-0.58,0.34,0.37,0.35,-0.73,-0.72,-0.72,1.0,2.0,10.0
50.0,50.0,50.0,0.99,-0.56,-0.55,-0.56,0.11,0.13,0.13,-0.82,-0.81,-0.81,1.0,2.0,10.0
48.0,48.0,48.0,0.99,-0.48,-0.46,-0.47,-0.11,-0.09,-0.1,-0.87,-0.86,-0.87,1.0,2.0,10.0
49.0,49.0,49.0,0.99,-0.58,-0.57,-0.58,0.19,0.21,0.2,-0.79,-0.78,-0.78,1.0,3.0,10.0
49.0,50.0,49.4,0.99,-0.47,-0.46,-0.46,0.0,0.02,0.01,-0.88,-0.87,-0.88,1.0,2.0,10.0
48.0,50.0,49.17,1.0,-0.76,-0.19,-0.22,0.47,1.09,0.52,-0.85,-0.12,-0.81,1.0,2.0,10.0
95.0,95.0,95.0,0.99,-0.48,-0.47,-0.47,0.45,0.46,0.45,-0.75,-0.74,-0.75,1.0,1.0,10.0
65.0,66.0,65.2,1.0,-0.44,-0.43,-0.44,-0.16,-0.14,-0.15,-0.89,-0.88,-0.89,0.0,5.0,21.0
65.0,67.0,66.33,1.0,-0.44,-0.43,-0.44,-0.16,-0.14,-0.15,-0.89,-0.88,-0.89,0.0,5.0,21.0
61.0,63.0,62.33,1.0,-0.32,-0.31,-0.32,-0.12,-0.09,-0.11,-0.95,-0.93,-0.94,0.0,5.0,21.0
59.0,61.0,59.33,1.0,-0.38,-0.34,-0.36,0.08,0.13,0.09,-0.95,-0.91,-0.93,0.0,5.0,21.0
65.0,65.0,65.0,1.0,-0.36,-0.3,-0.33,0.06,0.72,0.17,-0.94,-0.82,-0.92,0.0,5.0,21.0
63.0,64.0,63.33,1.0,-0.3,-0.27,-0.29,-0.17,-0.08,-0.12,-0.98,-0.9,-0.95,0.0,0.0,21.0
64.0,66.0,64.83,1.0,-0.33,-0.31,-0.32,-0.42,-0.31,-0.38,-0.88,-0.85,-0.87,0.0,5.0,21.0
61.0,62.0,61.5,1.0,-0.29,-0.27,-0.28,0.15,0.16,0.15,-0.95,-0.94,-0.95,0.0,5.0,21.0
64.0,70.0,66.2,1.0,-0.28,-0.25,-0.26,-0.73,-0.51,-0.56,-0.82,-0.55,-0.78,0.0,5.0,21.0
64.0,66.0,65.6,1.0,-0.48,-0.46,-0.47,-0.48,-0.46,-0.47,-0.76,-0.73,-0.74,0.0,5.0,21.0
63.0,65.0,63.5,1.0,-0.29,-0.25,-0.28,0.15,0.39,0.17,-0.96,-0.92,-0.94,0.0,5.0,21.0
60.0,65.0,63.67,1.0,-0.6,-0.1,-0.29,0.14,0.96,0.38,-0.96,-0.44,-0.86,0.0,5.0,21.0
61.0,66.0,62.67,1.0,-0.36,-0.34,-0.35,-0.05,-0.03,-0.04,-0.94,-0.93,-0.93,0.0,5.0,21.0
63.0,70.0,66.0,1.0,-0.72,0.26,-0.3,-0.99,-0.17,-0.43,-1.11,-0.11,-0.82,0.0,5.0,21.0
67.0,81.0,74.71,1.0,-0.4,-0.27,-0.31,-0.37,0.36,0.06,-0.97,-0.85,-0.93,0.0,5.0,21.0
61.0,63.0,62.0,1.0,-0.33,-0.31,-0.32,-0.11,0.03,-0.09,-0.95,-0.93,-0.94,0.0,5.0,21.0
67.0,68.0,67.6,1.0,-0.43,-0.42,-0.42,0.16,0.17,0.17,-0.89,-0.88,-0.89,0.0,0.0,21.0
63.0,65.0,63.67,1.0,-0.29,-0.28,-0.28,0.14,0.16,0.15,-0.95,-0.94,-0.95,0.0,5.0,21.0
64.0,67.0,65.4,1.0,-0.4,-0.39,-0.39,0.15,0.17,0.16,-0.91,-0.9,-0.9,0.0,0.0,21.0
65.0,68.0,66.5,1.0,-0.3,-0.28,-0.28,0.12,0.15,0.13,-0.95,-0.94,-0.95,0.0,5.0,21.0
62.0,63.0,62.6,1.0,-0.29,-0.27,-0.28,0.14,0.16,0.15,-0.95,-0.94,-0.95,0.0,5.0,21.0
63.0,71.0,65.2,1.0,-0.63,-0.31,-0.44,-0.66,-0.01,-0.16,-0.91,-0.66,-0.88,0.0,5.0,21.0
68.0,69.0,68.14,1.0,-0.32,-0.29,-0.3,-0.22,-0.2,-0.21,-0.94,-0.92,-0.93,0.0,0.0,21.0
63.0,64.0,63.5,1.0,-0.27,-0.26,-0.27,0.18,0.19,0.19,-0.95,-0.94,-0.94,0.0,5.0,21.0
64.0,65.0,64.83,1.0,-0.24,0.79,0.25,-0.62,-0.16,-0.41,-0.94,-0.56,-0.84,0.0,5.0,21.0
63.0,67.0,65.5,1.0,-0.29,-0.28,-0.28,0.08,0.1,0.09,-0.96,-0.95,-0.95,0.0,5.0,21.0
64.0,66.0,65.17,1.0,-0.34,-0.32,-0.33,-0.6,-0.39,-0.41,-0.86,-0.77,-0.84,0.0,5.0,21.0
63.0,70.0,67.0,1.0,-0.36,-0.34,-0.35,-0.05,-0.03,-0.04,-0.94,-0.93,-0.94,0.0,5.0,21.0
63.0,65.0,63.5,1.0,-0.7,-0.69,-0.7,-0.29,-0.27,-0.28,-0.66,-0.65,-0.66,0.0,0.0,21.0
61.0,65.0,62.8,1.0,-0.36,-0.34,-0.35,-0.06,-0.03,-0.04,-0.94,-0.93,-0.93,0.0,5.0,21.0
64.0,65.0,64.8,1.0,-0.35,-0.34,-0.35,-0.44,-0.42,-0.43,-0.84,-0.82,-0.83,0.0,5.0,21.0
66.0,73.0,69.8,1.0,-0.33,-0.31,-0.32,-0.13,-0.1,-0.11,-0.95,-0.93,-0.94,0.0,5.0,21.0
65.0,69.0,67.4,1.0,-0.28,-0.27,-0.28,0.17,0.18,0.17,-0.95,-0.94,-0.94,0.0,0.0,21.0
71.0,77.0,75.2,1.0,-0.44,-0.44,-0.44,0.2,0.21,0.2,-0.88,-0.87,-0.87,0.0,5.0,21.0
64.0,68.0,65.17,1.0,-0.67,0.68,-0.31,-0.32,0.34,0.0,-1.04,-0.67,-0.93,0.0,5.0,21.0
64.0,66.0,64.67,1.0,-0.33,-0.31,-0.32,-0.13,-0.1,-0.11,-0.95,-0.93,-0.94,0.0,5.0,21.0
63.0,65.0,63.86,1.0,-0.29,-0.27,-0.28,0.17,0.18,0.18,-0.95,-0.94,-0.94,0.0,5.0,21.0
64.0,68.0,65.83,1.0,-0.55,-0.54,-0.55,0.45,0.47,0.46,-0.7,-0.67,-0.69,0.0,0.0,21.0
62.0,64.0,63.17,1.0,-0.36,-0.34,-0.35,-0.06,-0.03,-0.04,-0.95,-0.92,-0.93,0.0,5.0,21.0
65.0,69.0,67.0,1.01,-0.88,0.09,-0.3,-0.95,0.29,-0.29,-1.15,-0.35,-0.89,0.0,0.0,21.0
63.0,67.0,65.17,1.0,-0.31,-0.3,-0.3,-0.14,-0.12,-0.13,-0.95,-0.93,-0.94,0.0,5.0,21.0
68.0,69.0,68.83,1.0,-0.4,-0.29,-0.31,-0.22,-0.16,-0.2,-0.94,-0.89,-0.93,0.0,0.0,21.0
63.0,65.0,63.67,1.0,-0.28,-0.26,-0.27,0.18,0.2,0.19,-0.95,-0.94,-0.94,0.0,5.0,21.0
62.0,71.0,64.0,1.0,-0.62,-0.16,-0.26,-0.55,0.23,-0.25,-1.19,-0.79,-0.9,0.0,5.0,21.0
70.0,72.0,70.5,1.0,-0.3,-0.29,-0.3,-0.21,-0.19,-0.2,-0.94,-0.92,-0.93,0.0,0.0,21.0
64.0,73.0,68.0,1.0,-0.5,-0.39,-0.44,-0.54,-0.41,-0.47,-0.87,-0.73,-0.76,0.0,5.0,21.0
68.0,68.0,68.0,1.0,-0.44,-0.43,-0.43,-0.16,-0.14,-0.15,-0.89,-0.88,-0.89,0.0,5.0,21.0
64.0,69.0,67.2,1.0,-0.3,-0.19,-0.25,-0.92,0.24,-0.45,-1.08,-0.54,-0.85,0.0,5.0,21.0
68.0,69.0,68.67,1.0,-0.44,-0.44,-0.44,0.2,0.21,0.2,-0.88,-0.87,-0.87,0.0,5.0,21.0
66.0,73.0,68.33,1.0,-0.44,-0.43,-0.44,-0.16,-0.14,-0.15,-0.89,-0.88,-0.89,0.0,5.0,21.0
68.0,72.0,70.33,1.0,-0.45,-0.44,-0.44,0.2,0.21,0.2,-0.88,-0.87,-0.87,0.0,5.0,21.0
62.0,65.0,63.8,1.0,-0.33,-0.31,-0.32,-0.11,-0.09,-0.1,-0.96,-0.93,-0.94,0.0,5.0,21.0
68.0,68.0,68.0,1.0,-0.6,-0.23,-0.34,-0.63,-0.33,-0.49,-0.85,-0.67,-0.79,1.0,1.0,21.0
65.0,66.0,65.83,1.0,-0.41,-0.4,-0.4,0.07,0.09,0.08,-0.91,-0.9,-0.91,1.0,2.0,21.0
64.0,65.0,64.5,1.0,-0.29,-0.27,-0.28,-0.34,-0.29,-0.33,-0.91,-0.89,-0.9,1.0,2.0,21.0
60.0,64.0,62.33,1.0,-0.36,0.36,-0.29,-0.23,0.1,-0.07,-1.0,-0.71,-0.94,1.0,2.0,21.0
62.0,63.0,62.8,1.0,-0.33,-0.31,-0.32,-0.16,-0.14,-0.15,-0.94,-0.92,-0.93,1.0,2.0,21.0
62.0,64.0,63.0,1.0,-0.29,-0.27,-0.28,0.13,0.16,0.15,-0.96,-0.94,-0.95,1.0,2.0,21.0
62.0,69.0,63.5,1.0,-0.23,-0.22,-0.22,0.15,0.16,0.16,-0.96,-0.96,-0.96,1.0,2.0,21.0
66.0,74.0,70.4,1.0,-0.28,-0.26,-0.27,-0.32,-0.3,-0.31,-0.92,-0.9,-0.91,1.0,1.0,21.0
65.0,66.0,65.83,1.0,-0.46,-0.46,-0.46,0.15,0.16,0.15,-0.88,-0.87,-0.87,1.0,3.0,21.0
68.0,71.0,68.67,1.0,-0.31,-0.29,-0.3,-0.54,-0.52,-0.53,-0.8,-0.77,-0.79,1.0,1.0,21.0
59.0,67.0,61.83,1.0,-0.31,-0.29,-0.3,-0.13,-0.11,-0.12,-0.96,-0.93,-0.95,1.0,2.0,21.0
63.0,64.0,63.83,1.0,-0.33,-0.31,-0.32,-0.16,-0.14,-0.15,-0.95,-0.92,-0.93,1.0,2.0,21.0
63.0,63.0,63.0,1.0,-0.35,-0.31,-0.33,-0.02,0.18,0.14,-0.99,-0.87,-0.93,1.0,2.0,21.0
71.0,77.0,74.17,1.0,-0.31,-0.3,-0.31,-0.54,-0.52,-0.53,-0.8,-0.78,-0.79,1.0,2.0,21.0
66.0,68.0,67.17,1.0,-0.46,-0.45,-0.46,0.14,0.15,0.15,-0.88,-0.87,-0.88,1.0,3.0,21.0
63.0,63.0,63.0,1.0,-0.31,-0.3,-0.3,-0.13,-0.11,-0.12,-0.96,-0.94,-0.94,1.0,2.0,21.0
66.0,67.0,66.8,1.0,-0.44,-0.43,-0.43,-0.16,-0.14,-0.15,-0.9,-0.88,-0.89,1.0,2.0,21.0
65.0,68.0,66.8,1.0,-0.7,-0.06,-0.32,-0.41,0.32,-0.12,-1.12,-0.68,-0.92,1.0,1.0,21.0
66.0,69.0,67.83,1.0,-0.32,-0.31,-0.32,-0.62,-0.6,-0.61,-0.73,-0.71,-0.72,1.0,2.0,21.0
64.0,67.0,65.17,1.0,-0.42,-0.42,-0.42,0.15,0.17,0.17,-0.9,-0.88,-0.89,1.0,3.0,21.0
65.0,68.0,66.8,1.0,0.1,0.11,0.11,-0.57,-0.56,-0.57,0.82,0.82,0.82,1.0,2.0,21.0
64.0,67.0,65.17,1.0,-0.41,-0.4,-0.4,0.1,0.14,0.12,-0.91,-0.9,-0.91,1.0,2.0,21.0
66.0,67.0,66.5,1.0,-0.43,-0.42,-0.42,0.16,0.17,0.17,-0.89,-0.88,-0.89,1.0,3.0,21.0
68.0,69.0,68.2,1.0,-0.4,-0.39,-0.39,0.0,0.02,0.01,-0.93,-0.91,-0.92,1.0,2.0,21.0
65.0,68.0,67.2,1.0,-0.28,-0.26,-0.27,-0.32,-0.3,-0.31,-0.92,-0.9,-0.91,1.0,2.0,21.0
60.0,62.0,61.0,1.0,-0.33,-0.32,-0.32,0.13,0.15,0.14,-0.94,-0.93,-0.93,1.0,2.0,21.0
62.0,68.0,64.83,1.0,-0.48,-0.46,-0.47,-0.32,-0.31,-0.32,-0.83,-0.82,-0.82,1.0,2.0,21.0
64.0,68.0,66.0,1.0,0.09,0.1,0.1,-0.57,-0.56,-0.57,0.81,0.82,0.82,1.0,2.0,21.0
63.0,67.0,65.0,1.0,-0.3,-0.28,-0.29,-0.13,-0.1,-0.12,-0.96,-0.92,-0.95,1.0,1.0,21.0
62.0,63.0,62.17,1.0,-0.33,-0.31,-0.32,-0.16,-0.14,-0.15,-0.95,-0.93,-0.93,1.0,2.0,21.0
64.0,66.0,65.0,1.0,-0.28,-0.26,-0.27,0.18,0.19,0.19,-0.95,-0.94,-0.94,1.0,2.0,21.0
65.0,66.0,65.5,1.0,-0.43,-0.42,-0.42,0.17,0.19,0.18,-0.89,-0.88,-0.89,1.0,2.0,21.0
65.0,66.0,65.17,1.0,-0.31,-0.27,-0.29,-0.3,-0.2,-0.24,-0.95,-0.9,-0.92,1.0,1.0,21.0
65.0,68.0,67.0,1.0,-0.32,-0.31,-0.31,-0.6,-0.58,-0.59,-0.75,-0.73,-0.74,1.0,2.0,21.0
61.0,62.0,61.17,1.0,-0.34,-0.32,-0.33,-0.15,-0.12,-0.13,-0.95,-0.93,-0.93,1.0,2.0,21.0
71.0,80.0,76.2,1.0,-0.31,-0.3,-0.31,-0.54,-0.52,-0.53,-0.8,-0.78,-0.79,1.0,2.0,21.0
67.0,68.0,67.5,1.0,-0.45,-0.44,-0.45,0.5,0.52,0.51,-0.74,-0.73,-0.73,1.0,2.0,21.0
62.0,63.0,62.67,1.0,-0.3,-0.28,-0.29,-0.38,-0.33,-0.36,-0.89,-0.87,-0.88,1.0,2.0,21.0
66.0,68.0,67.17,1.0,-0.45,-0.44,-0.44,0.2,0.21,0.2,-0.88,-0.87,-0.87,1.0,2.0,21.0
69.0,70.0,69.5,1.0,-0.81,-0.3,-0.55,-0.03,0.68,0.02,-0.84,-0.35,-0.82,1.0,2.0,21.0
66.0,67.0,66.33,1.0,-0.38,-0.37,-0.37,-0.01,0.01,0.0,-0.94,-0.92,-0.93,1.0,2.0,21.0
59.0,68.0,63.5,1.0,-0.34,-0.32,-0.33,-0.15,-0.12,-0.13,-0.94,-0.92,-0.93,1.0,2.0,21.0
66.0,68.0,66.5,1.0,-0.33,-0.3,-0.31,-0.19,-0.15,-0.17,-0.95,-0.92,-0.93,1.0,2.0,21.0
69.0,69.0,69.0,1.0,-0.56,-0.54,-0.55,-0.02,-0.0,-0.01,-0.84,-0.82,-0.83,1.0,2.0,21.0
59.0,63.0,61.33,1.0,-0.23,-0.22,-0.23,0.13,0.14,0.14,-0.97,-0.96,-0.96,1.0,2.0,21.0
62.0,67.0,65.0,1.0,-0.29,-0.27,-0.28,-0.34,-0.33,-0.33,-0.91,-0.89,-0.9,1.0,2.0,21.0
61.0,64.0,63.33,1.0,-0.33,-0.32,-0.33,-0.23,-0.21,-0.22,-0.93,-0.91,-0.92,1.0,2.0,21.0
68.0,69.0,68.2,1.0,-0.29,-0.27,-0.28,0.17,0.18,0.17,-0.95,-0.94,-0.94,1.0,2.0,21.0
67.0,68.0,67.5,1.0,-0.32,-0.31,-0.32,0.08,0.09,0.08,-0.96,-0.93,-0.94,1.0,2.0,21.0
64.0,66.0,64.67,1.0,-0.29,-0.27,-0.28,-0.34,-0.32,-0.33,-0.91,-0.9,-0.9,1.0,2.0,21.0
64.0,66.0,64.4,1.0,-0.4,-0.37,-0.4,0.03,0.16,0.12,-0.95,-0.9,-0.91,1.0,2.0,21.0
66.0,68.0,66.83,1.0,-0.28,-0.26,-0.27,-0.32,-0.3,-0.31,-0.92,-0.91,-0.91,1.0,2.0,21.0
61.0,63.0,61.67,1.0,-0.91,0.06,-0.27,-0.87,0.76,0.15,-1.06,-0.51,-0.9,1.0,2.0,21.0
62.0,63.0,62.17,1.0,-0.26,-0.23,-0.24,-0.01,0.02,0.01,-0.97,-0.96,-0.97,1.0,2.0,21.0
65.0,66.0,65.4,1.0,-0.46,-0.45,-0.46,0.16,0.17,0.16,-0.88,-0.87,-0.87,1.0,3.0,21.0
64.0,65.0,64.5,1.0,-0.42,-0.4,-0.41,-0.55,-0.53,-0.54,-0.74,-0.71,-0.73,1.0,2.0,21.0
61.0,62.0,61.5,1.0,-0.47,-0.26,-0.29,-0.67,0.2,0.13,-1.01,-0.74,-0.94,1.0,1.0,21.0
61.0,65.0,63.4,1.0,-0.3,-0.27,-0.28,0.13,0.16,0.14,-0.97,-0.94,-0.95,1.0,2.0,21.0
71.0,73.0,71.83,1.0,-0.45,-0.44,-0.45,0.14,0.15,0.14,-0.89,-0.88,-0.88,1.0,3.0,21.0
60.0,63.0,62.17,1.0,-0.31,-0.3,-0.3,-0.13,-0.1,-0.12,-0.95,-0.94,-0.94,1.0,2.0,21.0
62.0,63.0,62.33,1.0,-0.28,-0.26,-0.27,0.14,0.16,0.15,-0.95,-0.94,-0.95,1.0,2.0,21.0
61.0,62.0,61.5,1.0,-0.33,-0.31,-0.32,-0.16,-0.14,-0.15,-0.94,-0.92,-0.93,1.0,2.0,21.0
65.0,72.0,68.17,1.0,-0.32,-0.3,-0.31,-0.6,-0.57,-0.59,-0.75,-0.72,-0.74,1.0,2.0,21.0
66.0,71.0,67.8,1.0,-0.39,-0.37,-0.38,-0.48,-0.37,-0.46,-0.82,-0.78,-0.8,1.0,2.0,21.0
70.0,75.0,72.2,0.99,-0.33,-0.32,-0.32,-0.14,-0.13,-0.14,-0.93,-0.92,-0.93,0.0,5.0,7.0
73.0,74.0,73.5,0.99,-0.15,-0.13,-0.14,0.31,0.34,0.33,-0.93,-0.92,-0.93,0.0,5.0,7.0
60.0,74.0,67.5,1.0,0.17,0.21,0.2,-0.95,-0.9,-0.94,0.27,0.32,0.3,0.0,0.0,7.0
70.0,74.0,71.83,1.0,0.22,0.26,0.24,-0.92,-0.9,-0.91,0.33,0.38,0.35,0.0,5.0,7.0
70.0,77.0,73.5,1.01,0.05,0.56,0.31,-0.37,1.07,-0.31,-0.58,1.17,0.87,0.0,5.0,7.0
71.0,75.0,72.86,1.0,-0.17,-0.04,-0.1,0.54,1.05,0.81,0.3,0.78,0.58,0.0,5.0,7.0
61.0,62.0,61.17,1.0,0.04,0.05,0.04,-0.99,-0.98,-0.99,0.14,0.15,0.14,0.0,0.0,7.0
75.0,76.0,75.17,1.0,0.24,0.25,0.25,-0.91,-0.9,-0.9,0.35,0.37,0.36,0.0,5.0,7.0
72.0,75.0,73.17,0.99,-0.17,-0.16,-0.16,0.3,0.33,0.32,-0.93,-0.92,-0.92,0.0,5.0,7.0
74.0,75.0,74.5,1.0,-0.0,0.0,-0.0,-1.0,-0.99,-0.99,0.09,0.11,0.1,0.0,0.0,7.0
72.0,76.0,73.83,1.0,-0.08,-0.07,-0.07,0.81,0.81,0.81,0.58,0.59,0.58,0.0,5.0,7.0
71.0,71.0,71.0,1.0,0.65,0.66,0.65,0.75,0.76,0.76,-0.02,-0.0,-0.01,0.0,0.0,7.0
73.0,74.0,73.33,1.0,-0.09,-0.09,-0.09,0.82,0.83,0.82,0.56,0.57,0.57,0.0,5.0,7.0
59.0,61.0,59.67,1.0,0.1,0.13,0.12,-0.95,-0.93,-0.94,0.3,0.34,0.32,0.0,0.0,7.0
72.0,74.0,73.17,1.0,-0.32,0.09,-0.11,-0.45,1.05,0.82,-1.08,0.61,0.42,0.0,5.0,7.0
63.0,65.0,63.83,1.0,0.0,0.04,0.04,-1.02,-0.98,-0.99,0.12,0.18,0.15,0.0,0.0,7.0
64.0,73.0,66.0,1.0,0.04,0.04,0.04,-0.99,-0.98,-0.99,0.14,0.15,0.14,0.0,0.0,7.0
71.0,73.0,72.2,1.0,-0.08,-0.07,-0.08,0.8,0.82,0.81,0.58,0.59,0.59,0.0,5.0,7.0
74.0,76.0,74.57,1.0,0.24,0.24,0.24,-0.91,-0.9,-0.91,0.35,0.36,0.36,0.0,5.0,7.0
75.0,77.0,76.4,1.0,-0.01,0.0,-0.0,-1.0,-0.99,-0.99,0.09,0.11,0.1,0.0,0.0,7.0
61.0,64.0,62.17,1.01,-0.78,0.25,-0.11,-1.16,1.54,-0.2,-1.36,0.08,-0.81,0.0,0.0,7.0
62.0,66.0,64.5,1.0,0.02,0.04,0.03,-0.99,-0.98,-0.98,0.15,0.18,0.17,0.0,0.0,7.0
73.0,76.0,74.5,1.0,0.24,0.25,0.24,-0.91,-0.9,-0.91,0.35,0.36,0.36,0.0,5.0,7.0
66.0,74.0,69.0,1.0,0.04,0.04,0.04,-0.99,-0.98,-0.99,0.14,0.16,0.15,0.0,0.0,7.0
72.0,74.0,72.6,1.0,-0.1,-0.08,-0.09,0.81,0.84,0.82,0.54,0.59,0.56,0.0,5.0,7.0
73.0,74.0,73.83,1.0,-0.11,-0.1,-0.1,0.8,0.81,0.81,0.58,0.59,0.58,0.0,5.0,7.0
60.0,63.0,61.67,1.0,0.17,0.25,0.19,-1.0,-0.9,-0.94,0.26,0.34,0.29,0.0,0.0,7.0
63.0,68.0,66.17,0.99,-0.23,-0.21,-0.22,0.12,0.14,0.13,-0.96,-0.95,-0.96,1.0,3.0,7.0
59.0,65.0,60.0,0.99,-0.23,-0.22,-0.22,0.1,0.13,0.11,-0.96,-0.95,-0.96,1.0,2.0,7.0
68.0,68.0,68.0,0.99,-0.25,-0.24,-0.24,-0.3,-0.28,-0.29,-0.92,-0.91,-0.92,1.0,1.0,7.0
67.0,71.0,69.0,0.99,-0.24,-0.22,-0.23,0.12,0.15,0.13,-0.96,-0.95,-0.95,1.0,2.0,7.0
64.0,65.0,64.8,0.99,-0.26,-0.25,-0.25,-0.29,-0.28,-0.29,-0.92,-0.91,-0.91,1.0,2.0,7.0
65.0,66.0,65.5,0.99,-0.25,-0.24,-0.24,-0.28,-0.26,-0.27,-0.93,-0.92,-0.92,1.0,2.0,7.0
59.0,59.0,59.0,1.0,0.18,0.18,0.18,-0.9,-0.88,-0.89,0.42,0.44,0.43,1.0,2.0,7.0
63.0,73.0,66.33,1.0,0.12,0.14,0.13,-0.92,-0.91,-0.92,0.36,0.39,0.37,1.0,2.0,7.0
69.0,70.0,69.83,1.0,0.65,0.66,0.65,0.75,0.76,0.76,-0.02,-0.0,-0.01,1.0,2.0,7.0
66.0,68.0,67.5,0.99,-0.25,-0.24,-0.24,-0.28,-0.25,-0.27,-0.93,-0.92,-0.92,1.0,2.0,7.0
70.0,75.0,72.67,1.01,0.39,0.39,0.39,0.27,0.28,0.27,0.88,0.89,0.89,1.0,2.0,7.0
70.0,76.0,73.4,1.01,0.26,0.27,0.26,-0.26,-0.25,-0.26,0.94,0.94,0.94,1.0,2.0,7.0
61.0,63.0,62.2,1.0,0.14,0.15,0.14,-0.92,-0.91,-0.92,0.36,0.39,0.38,1.0,2.0,7.0
56.0,57.0,56.8,1.0,0.17,0.18,0.18,-0.9,-0.89,-0.89,0.41,0.44,0.42,1.0,2.0,7.0
64.0,67.0,65.5,0.99,-0.25,-0.24,-0.24,-0.28,-0.26,-0.27,-0.93,-0.92,-0.92,1.0,2.0,7.0
60.0,60.0,60.0,0.99,-0.22,-0.21,-0.22,0.12,0.14,0.13,-0.97,-0.95,-0.96,1.0,3.0,7.0
72.0,73.0,72.4,0.99,-0.12,0.07,-0.04,0.13,0.27,0.16,-1.02,-0.9,-0.98,1.0,2.0,7.0
71.0,73.0,72.6,1.01,0.38,0.4,0.4,0.27,0.3,0.27,0.87,0.89,0.88,1.0,2.0,7.0
68.0,71.0,69.4,0.99,-0.25,-0.22,-0.23,0.07,0.18,0.14,-0.96,-0.93,-0.95,1.0,2.0,7.0
65.0,69.0,66.83,1.01,0.27,0.28,0.28,-0.3,-0.29,-0.29,0.92,0.93,0.92,1.0,2.0,7.0
59.0,61.0,60.33,0.99,-0.22,-0.21,-0.22,0.12,0.14,0.13,-0.96,-0.95,-0.96,1.0,3.0,7.0
61.0,62.0,61.17,0.99,-0.22,-0.21,-0.22,0.12,0.14,0.13,-0.96,-0.95,-0.96,1.0,3.0,7.0
61.0,62.0,61.4,0.99,-0.25,-0.23,-0.24,-0.02,-0.01,-0.01,-0.96,-0.95,-0.96,1.0,2.0,7.0
68.0,70.0,68.5,0.99,-0.28,-0.27,-0.27,-0.48,-0.46,-0.47,-0.83,-0.82,-0.83,1.0,2.0,7.0
63.0,64.0,63.6,0.99,-0.26,-0.25,-0.26,-0.3,-0.28,-0.29,-0.92,-0.9,-0.91,1.0,2.0,7.0
60.0,62.0,61.33,0.99,-0.22,-0.21,-0.22,0.12,0.15,0.13,-0.98,-0.95,-0.96,1.0,3.0,7.0
69.0,82.0,75.0,1.0,-0.31,-0.31,-0.31,-0.35,-0.34,-0.35,0.88,0.88,0.88,0.0,0.0,28.0
59.0,61.0,60.33,1.0,-0.29,-0.28,-0.29,0.34,0.34,0.34,0.89,0.9,0.89,0.0,5.0,28.0
67.0,68.0,67.67,1.0,-0.53,-0.06,-0.31,-1.26,0.15,-0.24,-0.21,0.94,0.73,0.0,0.0,28.0
65.0,70.0,66.67,1.0,-0.37,-0.36,-0.37,-0.46,-0.44,-0.45,-0.82,-0.81,-0.81,0.0,5.0,28.0
63.0,69.0,66.67,0.99,-0.55,-0.55,-0.55,-0.72,-0.71,-0.72,0.42,0.42,0.42,0.0,0.0,28.0
57.0,58.0,57.6,1.0,-0.28,-0.27,-0.27,-0.07,-0.06,-0.06,0.95,0.96,0.96,0.0,5.0,28.0
68.0,86.0,76.0,0.99,-0.55,-0.55,-0.55,-0.72,-0.71,-0.72,0.41,0.42,0.42,0.0,0.0,28.0
63.0,68.0,65.17,1.0,-0.33,-0.33,-0.33,0.14,0.14,0.14,0.93,0.94,0.93,0.0,0.0,28.0
58.0,59.0,58.33,1.0,-0.29,-0.28,-0.29,0.34,0.34,0.34,0.89,0.9,0.89,0.0,5.0,28.0
73.0,82.0,78.4,0.99,-0.55,-0.55,-0.55,-0.72,-0.71,-0.72,0.41,0.42,0.42,0.0,0.0,28.0
59.0,59.0,59.0,1.04,-1.23,0.8,-0.46,-1.19,1.24,-0.14,-1.37,1.55,-0.4,0.0,5.0,28.0
55.0,59.0,57.8,1.0,-0.44,0.8,0.65,0.08,1.15,0.23,-0.91,0.62,-0.56,0.0,5.0,28.0
64.0,70.0,67.83,1.0,-1.04,-0.23,-0.34,-0.31,0.49,0.27,-1.22,-0.07,-0.89,0.0,0.0,28.0
63.0,67.0,65.5,0.99,-0.55,-0.55,-0.55,-0.72,-0.71,-0.72,0.41,0.42,0.42,0.0,0.0,28.0
59.0,59.0,59.0,1.0,-0.58,-0.17,-0.25,-0.93,-0.19,-0.27,0.16,0.97,0.91,0.0,0.0,28.0
61.0,63.0,62.5,1.0,-0.37,-0.36,-0.37,-0.46,-0.44,-0.45,-0.82,-0.81,-0.81,0.0,5.0,28.0
54.0,59.0,56.0,1.0,-0.92,-0.59,-0.66,-0.35,0.37,0.17,-0.81,-0.36,-0.69,0.0,0.0,28.0
61.0,83.0,69.5,1.01,0.43,0.99,0.76,-0.25,0.7,0.14,-0.85,-0.2,-0.6,0.0,0.0,28.0
63.0,68.0,64.4,1.0,-0.61,-0.28,-0.34,-0.09,0.65,0.3,-0.97,-0.31,-0.89,0.0,0.0,28.0
63.0,68.0,65.0,1.0,-0.33,-0.33,-0.33,0.14,0.14,0.14,0.93,0.93,0.93,0.0,0.0,28.0
58.0,61.0,59.83,1.0,-0.71,-0.69,-0.7,0.41,0.42,0.42,-0.6,-0.58,-0.59,0.0,0.0,28.0
58.0,68.0,63.17,0.99,-0.55,-0.55,-0.55,-0.72,-0.71,-0.71,0.42,0.42,0.42,0.0,0.0,28.0
55.0,63.0,57.4,1.0,-1.01,0.09,-0.47,-0.62,0.55,-0.07,-1.02,0.82,-0.36,0.0,0.0,28.0
59.0,59.0,59.0,1.0,-0.18,-0.17,-0.18,-0.2,-0.19,-0.2,0.96,0.96,0.96,0.0,0.0,28.0
57.0,60.0,58.33,1.0,-0.27,-0.27,-0.27,-0.07,-0.06,-0.07,0.95,0.96,0.96,0.0,5.0,28.0
70.0,85.0,76.67,0.99,-0.55,-0.55,-0.55,-0.72,-0.71,-0.71,0.41,0.42,0.42,0.0,0.0,28.0
58.0,60.0,59.0,1.0,-0.29,-0.28,-0.29,0.34,0.34,0.34,0.89,0.9,0.89,0.0,5.0,28.0
62.0,66.0,63.0,0.99,-0.55,-0.55,-0.55,-0.72,-0.71,-0.72,0.41,0.42,0.42,0.0,0.0,28.0
59.0,66.0,60.83,1.0,-0.37,-0.36,-0.36,-0.46,-0.44,-0.45,-0.82,-0.81,-0.82,0.0,5.0,28.0
57.0,87.0,63.5,1.0,0.22,0.22,0.22,0.17,0.18,0.18,-0.97,-0.96,-0.96,0.0,5.0,28.0
61.0,64.0,62.17,1.0,-0.37,-0.36,-0.36,-0.46,-0.44,-0.45,-0.82,-0.81,-0.82,0.0,5.0,28.0
75.0,85.0,78.83,0.99,-0.55,-0.55,-0.55,-0.72,-0.71,-0.71,0.41,0.42,0.42,0.0,0.0,28.0
59.0,65.0,62.33,1.0,-0.33,-0.33,-0.33,0.14,0.15,0.14,0.93,0.93,0.93,1.0,2.0,28.0
57.0,62.0,60.0,1.0,-0.3,-0.3,-0.3,-0.1,-0.09,-0.1,0.94,0.95,0.95,1.0,1.0,28.0
60.0,68.0,63.5,1.0,0.28,0.3,0.29,-0.36,-0.36,-0.36,-0.89,-0.88,-0.89,1.0,3.0,28.0
68.0,73.0,71.4,1.0,0.02,0.03,0.03,0.24,0.25,0.24,-0.98,-0.97,-0.97,1.0,2.0,28.0
59.0,62.0,60.17,1.0,-0.3,-0.29,-0.29,-0.11,-0.1,-0.11,0.94,0.95,0.95,1.0,2.0,28.0
63.0,65.0,64.0,1.0,0.16,0.17,0.17,-0.25,-0.24,-0.25,-0.96,-0.95,-0.95,1.0,2.0,28.0
57.0,59.0,57.83,1.0,-0.85,-0.26,-0.52,-0.77,0.22,-0.44,-0.79,1.08,0.5,1.0,3.0,28.0
56.0,57.0,56.2,1.0,-0.36,-0.35,-0.35,0.1,0.11,0.11,0.92,0.94,0.93,1.0,2.0,28.0
57.0,58.0,57.4,1.0,0.17,0.18,0.18,0.22,0.23,0.23,-0.97,-0.96,-0.96,1.0,2.0,28.0
59.0,60.0,59.4,1.0,-0.14,-0.14,-0.14,-0.28,-0.27,-0.28,0.94,0.95,0.95,1.0,2.0,28.0
61.0,66.0,63.17,1.0,0.28,0.3,0.29,-0.36,-0.35,-0.36,-0.89,-0.88,-0.89,1.0,3.0,28.0
66.0,74.0,69.0,1.0,-0.34,-0.34,-0.34,-0.33,-0.32,-0.32,-0.89,-0.88,-0.88,1.0,2.0,28.0
57.0,59.0,57.8,1.0,-0.44,-0.44,-0.44,0.41,0.42,0.41,-0.81,-0.8,-0.8,1.0,2.0,28.0
58.0,61.0,58.83,1.0,-0.28,-0.27,-0.27,-0.15,-0.15,-0.15,0.94,0.95,0.95,1.0,3.0,28.0
60.0,62.0,61.17,1.0,0.16,0.17,0.17,-0.26,-0.25,-0.25,-0.96,-0.95,-0.95,1.0,2.0,28.0
70.0,82.0,77.4,1.0,0.17,0.18,0.18,-0.54,-0.53,-0.54,-0.83,-0.82,-0.82,1.0,3.0,28.0
57.0,59.0,58.0,1.0,-0.28,-0.27,-0.28,-0.33,-0.33,-0.33,0.89,0.9,0.9,1.0,2.0,28.0
59.0,59.0,59.0,1.0,-0.2,-0.19,-0.2,-0.23,-0.22,-0.23,0.95,0.95,0.95,1.0,3.0,28.0
53.0,56.0,54.33,1.0,0.17,0.18,0.18,0.22,0.24,0.22,-0.97,-0.96,-0.96,1.0,2.0,28.0
62.0,65.0,63.67,1.0,-0.27,-0.26,-0.27,-0.4,-0.39,-0.4,0.87,0.88,0.87,1.0,2.0,28.0
59.0,62.0,60.33,1.0,0.28,0.3,0.29,-0.36,-0.35,-0.36,-0.89,-0.88,-0.89,1.0,3.0,28.0
59.0,59.0,59.0,1.0,-0.18,-0.18,-0.18,-0.2,-0.2,-0.2,0.96,0.96,0.96,1.0,3.0,28.0
56.0,57.0,56.17,1.0,0.18,0.23,0.19,0.12,0.15,0.14,-0.98,-0.95,-0.97,1.0,1.0,28.0
71.0,80.0,75.33,1.0,-0.24,-0.23,-0.23,-0.45,-0.44,-0.44,0.86,0.86,0.86,1.0,2.0,28.0
68.0,82.0,71.8,1.0,-0.29,-0.29,-0.29,-0.11,-0.11,-0.11,0.94,0.95,0.95,1.0,2.0,28.0
77.0,83.0,80.8,1.0,-0.63,-0.37,-0.41,-0.51,0.35,-0.41,-0.85,-0.6,-0.81,1.0,2.0,28.0
59.0,63.0,60.5,1.0,-0.14,-0.13,-0.14,-0.28,-0.27,-0.28,0.94,0.95,0.95,1.0,2.0,28.0
57.0,60.0,58.0,1.0,0.28,0.29,0.28,-0.1,-0.08,-0.09,-0.96,-0.95,-0.96,1.0,3.0,28.0
62.0,72.0,66.4,1.0,-0.33,-0.33,-0.33,0.14,0.14,0.14,0.93,0.93,0.93,1.0,1.0,28.0
59.0,60.0,59.17,1.0,-0.21,-0.21,-0.21,-0.22,-0.22,-0.22,0.94,0.95,0.95,1.0,2.0,28.0
55.0,56.0,55.71,1.0,-0.35,-0.34,-0.34,0.1,0.11,0.1,0.93,0.93,0.93,1.0,2.0,28.0
59.0,68.0,62.5,0.99,-0.26,-0.26,-0.26,-0.39,-0.39,-0.39,0.87,0.88,0.88,1.0,2.0,28.0
68.0,73.0,69.67,1.0,0.18,0.18,0.18,-0.55,-0.54,-0.54,-0.82,-0.81,-0.82,1.0,3.0,28.0
63.0,66.0,64.6,1.0,-0.33,-0.33,-0.33,0.14,0.15,0.14,0.93,0.93,0.93,1.0,2.0,28.0
64.0,65.0,64.43,1.0,0.16,0.18,0.17,-0.26,-0.23,-0.25,-0.96,-0.95,-0.95,1.0,1.0,28.0
62.0,75.0,69.33,0.99,-0.25,-0.25,-0.25,-0.4,-0.4,-0.4,0.87,0.88,0.88,1.0,2.0,28.0
62.0,65.0,63.67,1.0,0.28,0.3,0.29,-0.36,-0.35,-0.35,-0.89,-0.88,-0.89,1.0,3.0,28.0
59.0,60.0,59.14,1.0,-0.21,-0.21,-0.21,-0.23,-0.22,-0.22,0.94,0.95,0.95,1.0,2.0,28.0
61.0,66.0,64.0,0.99,-0.26,-0.26,-0.26,-0.4,-0.38,-0.39,0.87,0.88,0.88,1.0,2.0,28.0
57.0,60.0,58.67,0.99,-0.16,-0.16,-0.16,-0.47,-0.46,-0.46,0.86,0.87,0.86,1.0,2.0,28.0
58.0,60.0,59.33,1.0,-0.19,-0.19,-0.19,-0.23,-0.23,-0.23,0.95,0.95,0.95,1.0,2.0,28.0
58.0,59.0,58.8,1.0,-0.19,-0.19,-0.19,-0.23,-0.23,-0.23,0.95,0.95,0.95,1.0,3.0,28.0
67.0,69.0,68.0,0.99,-0.24,-0.23,-0.23,-0.37,-0.36,-0.36,0.89,0.9,0.9,1.0,2.0,28.0
60.0,62.0,61.2,1.01,-1.01,-0.48,-0.56,-0.13,0.92,0.57,-0.81,-0.21,-0.58,1.0,2.0,28.0
64.0,73.0,68.0,1.0,-0.42,-0.41,-0.41,-0.4,-0.38,-0.39,-0.83,-0.81,-0.82,1.0,2.0,28.0
65.0,68.0,66.5,1.0,0.28,0.3,0.29,-0.36,-0.36,-0.36,-0.89,-0.88,-0.89,1.0,3.0,28.0
60.0,60.0,60.0,1.0,-0.25,-0.18,-0.19,-0.23,-0.2,-0.21,0.92,0.97,0.95,1.0,3.0,28.0
56.0,60.0,58.17,1.0,-0.35,-0.35,-0.35,0.1,0.11,0.11,0.93,0.93,0.93,1.0,2.0,28.0
67.0,85.0,77.2,1.0,0.28,0.29,0.28,-0.09,-0.08,-0.09,-0.96,-0.95,-0.96,1.0,3.0,28.0
65.0,65.0,65.0,1.0,0.16,0.17,0.17,-0.26,-0.24,-0.25,-0.96,-0.95,-0.95,1.0,2.0,28.0
62.0,69.0,66.17,0.99,-0.24,-0.23,-0.23,-0.37,-0.36,-0.37,0.89,0.9,0.9,1.0,2.0,28.0
63.0,72.0,67.71,1.0,-0.26,-0.25,-0.26,-0.4,-0.4,-0.4,0.87,0.88,0.87,1.0,2.0,28.0
59.0,61.0,60.33,1.0,-0.16,-0.15,-0.15,0.21,0.29,0.23,0.95,0.98,0.96,1.0,2.0,28.0
58.0,68.0,61.5,1.0,-0.14,-0.13,-0.14,-0.28,-0.28,-0.28,0.94,0.95,0.95,1.0,2.0,28.0
61.0,74.0,67.0,0.99,-0.24,-0.23,-0.23,-0.37,-0.36,-0.36,0.89,0.9,0.9,1.0,2.0,28.0
65.0,68.0,66.0,0.99,-0.24,-0.23,-0.23,-0.37,-0.36,-0.36,0.89,0.9,0.9,1.0,2.0,28.0
58.0,60.0,59.0,0.99,-0.16,-0.16,-0.16,-0.46,-0.46,-0.46,0.86,0.87,0.87,1.0,2.0,28.0
61.0,64.0,62.33,1.0,-0.46,-0.36,-0.39,-0.55,-0.34,-0.44,-0.85,-0.75,-0.81,1.0,2.0,28.0
62.0,66.0,64.6,1.0,0.17,0.18,0.17,-0.54,-0.53,-0.54,-0.83,-0.82,-0.82,1.0,3.0,28.0
59.0,59.0,59.0,0.99,-0.16,-0.16,-0.16,-0.47,-0.46,-0.46,0.86,0.87,0.87,1.0,2.0,28.0
57.0,61.0,58.83,1.0,0.17,0.18,0.17,0.33,0.34,0.34,-0.93,-0.93,-0.93,1.0,2.0,28.0
59.0,63.0,60.5,1.0,0.16,0.17,0.17,-0.26,-0.24,-0.25,-0.96,-0.95,-0.95,1.0,2.0,28.0
54.0,58.0,55.6,1.0,-0.27,-0.26,-0.27,-0.33,-0.33,-0.33,0.9,0.91,0.9,1.0,2.0,28.0
62.0,64.0,62.83,1.0,0.21,0.22,0.22,-0.06,-0.04,-0.05,-0.98,-0.97,-0.98,1.0,2.0,28.0
54.0,61.0,57.5,1.0,0.28,0.29,0.28,-0.1,-0.08,-0.09,-0.96,-0.95,-0.96,1.0,3.0,28.0
61.0,64.0,62.33,1.0,0.16,0.17,0.17,-0.26,-0.25,-0.25,-0.96,-0.95,-0.95,1.0,2.0,28.0
61.0,62.0,61.6,0.99,-0.26,-0.26,-0.26,-0.39,-0.39,-0.39,0.87,0.88,0.88,1.0,3.0,28.0
61.0,69.0,62.5,1.0,0.16,0.17,0.17,-0.25,-0.23,-0.24,-0.96,-0.95,-0.96,1.0,3.0,28.0
58.0,59.0,58.33,1.0,-0.32,-0.31,-0.31,-0.31,-0.27,-0.28,0.9,0.95,0.9,1.0,2.0,28.0
58.0,59.0,58.6,1.0,-0.28,-0.28,-0.28,-0.33,-0.33,-0.33,0.89,0.9,0.9,1.0,2.0,28.0
58.0,81.0,68.43,1.0,-0.51,-0.5,-0.5,-0.54,-0.53,-0.53,0.67,0.68,0.67,1.0,2.0,28.0
61.0,69.0,65.5,1.0,0.29,0.3,0.29,-0.37,-0.37,-0.37,-0.89,-0.87,-0.88,1.0,2.0,28.0
58.0,59.0,58.6,1.0,-1.1,0.07,-0.29,-0.68,0.51,0.13,-1.19,0.3,-0.83,1.0,2.0,28.0
56.0,60.0,58.33,1.0,-0.3,-0.24,-0.25,-0.77,-0.33,-0.38,0.56,0.92,0.88,1.0,3.0,28.0
59.0,62.0,60.4,1.0,-0.42,-0.41,-0.41,-0.4,-0.39,-0.4,-0.83,-0.81,-0.82,1.0,2.0,28.0
64.0,68.0,66.17,0.99,-0.24,-0.23,-0.23,-0.37,-0.36,-0.36,0.89,0.9,0.9,1.0,2.0,28.0
64.0,65.0,64.83,0.99,-0.27,-0.26,-0.27,-0.41,-0.39,-0.4,0.86,0.88,0.87,1.0,2.0,28.0
59.0,61.0,59.71,1.0,-0.18,-0.17,-0.18,-0.2,-0.19,-0.2,0.96,0.96,0.96,1.0,3.0,28.0
62.0,62.0,62.0,1.0,-0.16,-0.15,-0.15,0.22,0.23,0.22,0.95,0.97,0.96,1.0,2.0,28.0
52.0,56.0,54.17,1.0,-0.02,0.29,0.18,-0.0,0.53,0.26,-1.04,-0.62,-0.95,1.0,2.0,28.0
60.0,68.0,62.83,1.0,0.18,0.19,0.18,-0.55,-0.54,-0.54,-0.82,-0.81,-0.82,1.0,3.0,28.0
57.0,59.0,58.4,1.0,-0.36,-0.26,-0.34,-0.45,0.8,0.17,0.55,0.95,0.91,1.0,1.0,28.0
60.0,83.0,65.4,1.0,-0.34,-0.33,-0.33,0.14,0.15,0.15,0.93,0.93,0.93,1.0,2.0,28.0
55.0,59.0,57.4,1.0,-0.57,-0.05,-0.28,0.61,1.16,0.94,-0.14,0.71,0.07,0.0,5.0,27.0
59.0,63.0,59.8,1.0,-1.07,-0.38,-0.51,-0.85,0.24,-0.08,-0.98,0.07,-0.79,0.0,0.0,27.0
55.0,57.0,56.33,0.99,-0.44,-0.24,-0.3,-0.89,-0.73,-0.82,0.42,0.59,0.47,0.0,0.0,27.0
55.0,92.0,61.17,1.0,0.5,0.5,0.5,-0.63,-0.62,-0.62,-0.6,-0.59,-0.6,0.0,5.0,27.0
61.0,62.0,61.5,1.0,0.5,0.51,0.5,-0.63,-0.62,-0.62,-0.6,-0.59,-0.59,0.0,5.0,27.0
54.0,59.0,56.67,1.0,-0.35,-0.34,-0.35,-0.14,-0.12,-0.13,-0.94,-0.92,-0.93,0.0,0.0,27.0
59.0,60.0,59.83,1.0,-0.49,-0.48,-0.48,0.13,0.15,0.14,-0.87,-0.86,-0.87,0.0,0.0,27.0
56.0,58.0,56.4,1.0,0.58,0.59,0.59,-0.52,-0.5,-0.51,-0.64,-0.61,-0.62,0.0,5.0,27.0
68.0,68.0,68.0,1.0,-0.36,-0.35,-0.35,-0.13,-0.1,-0.12,-0.94,-0.92,-0.93,0.0,0.0,27.0
59.0,59.0,59.0,1.0,-0.5,-0.46,-0.48,0.08,0.19,0.14,-0.88,-0.84,-0.87,0.0,0.0,27.0
53.0,68.0,59.17,1.0,-0.46,-0.45,-0.46,0.07,0.09,0.08,-0.9,-0.88,-0.89,0.0,5.0,27.0
58.0,59.0,58.4,1.0,-0.36,-0.35,-0.36,-0.14,-0.11,-0.13,-0.94,-0.92,-0.93,0.0,5.0,27.0
53.0,54.0,53.83,1.0,-0.35,-0.34,-0.35,-0.13,-0.1,-0.12,-0.94,-0.92,-0.93,0.0,0.0,27.0
53.0,54.0,53.6,1.0,-0.35,-0.35,-0.35,-0.13,-0.1,-0.12,-0.94,-0.92,-0.93,0.0,0.0,27.0
67.0,68.0,67.17,1.0,-0.5,-0.45,-0.49,-0.06,0.01,-0.01,-0.94,-0.86,-0.88,0.0,0.0,27.0
59.0,59.0,59.0,1.0,-0.52,-0.43,-0.49,-0.05,0.05,-0.0,-0.92,-0.85,-0.87,0.0,0.0,27.0
60.0,62.0,61.0,1.0,0.5,0.51,0.5,-0.62,-0.62,-0.62,-0.6,-0.59,-0.6,0.0,5.0,27.0
53.0,57.0,55.33,1.0,-0.35,-0.34,-0.35,-0.14,-0.12,-0.13,-0.94,-0.92,-0.93,0.0,0.0,27.0
51.0,56.0,54.0,1.0,-0.63,-0.08,-0.27,-1.01,0.32,-0.47,-1.18,0.3,-0.76,0.0,0.0,27.0
60.0,73.0,63.83,1.0,-0.5,-0.46,-0.48,0.11,0.16,0.14,-0.89,-0.85,-0.87,0.0,0.0,27.0
57.0,69.0,61.6,1.0,0.5,0.51,0.5,-0.62,-0.62,-0.62,-0.6,-0.59,-0.6,0.0,5.0,27.0
60.0,62.0,61.0,1.0,-0.35,-0.34,-0.35,-0.13,-0.11,-0.12,-0.94,-0.92,-0.93,0.0,0.0,27.0
59.0,59.0,59.0,1.0,0.59,0.6,0.59,-0.51,-0.49,-0.5,-0.63,-0.62,-0.63,0.0,5.0,27.0
51.0,60.0,55.33,0.99,-0.31,-0.3,-0.31,-0.85,-0.84,-0.85,0.42,0.42,0.42,0.0,5.0,27.0
52.0,100.0,68.33,1.05,-0.99,1.04,-0.2,-0.54,1.88,0.71,-1.33,0.63,-0.1,0.0,5.0,27.0
56.0,58.0,56.6,0.99,-0.31,-0.3,-0.3,-0.87,-0.82,-0.86,0.37,0.45,0.38,0.0,0.0,27.0
50.0,54.0,52.2,0.99,-0.31,-0.3,-0.31,-0.85,-0.85,-0.85,0.41,0.42,0.42,0.0,5.0,27.0
65.0,72.0,68.0,1.0,0.5,0.5,0.5,-0.63,-0.62,-0.62,-0.6,-0.59,-0.6,0.0,5.0,27.0
50.0,57.0,53.8,1.0,-0.35,-0.35,-0.35,-0.14,-0.12,-0.13,-0.94,-0.92,-0.93,0.0,0.0,27.0
52.0,59.0,55.2,1.0,-0.35,-0.35,-0.35,-0.14,-0.12,-0.13,-0.94,-0.92,-0.93,0.0,0.0,27.0
84.0,90.0,86.57,1.0,-0.38,-0.37,-0.37,-0.16,-0.13,-0.14,-0.93,-0.91,-0.92,0.0,0.0,27.0
51.0,60.0,53.67,1.0,-0.35,-0.35,-0.35,-0.13,-0.11,-0.12,-0.95,-0.92,-0.93,0.0,0.0,27.0
52.0,59.0,54.6,1.0,-0.35,-0.35,-0.35,-0.13,-0.11,-0.12,-0.94,-0.92,-0.93,0.0,0.0,27.0
61.0,62.0,61.4,1.0,0.5,0.51,0.5,-0.63,-0.62,-0.62,-0.6,-0.59,-0.6,0.0,5.0,27.0
56.0,62.0,57.67,1.0,-0.35,-0.34,-0.35,-0.14,-0.11,-0.13,-0.94,-0.92,-0.93,0.0,0.0,27.0
59.0,61.0,59.6,1.0,0.59,0.6,0.59,-0.51,-0.5,-0.51,-0.64,-0.61,-0.62,0.0,5.0,27.0
57.0,58.0,57.8,1.0,0.57,0.6,0.59,-0.53,-0.5,-0.51,-0.64,-0.6,-0.62,0.0,5.0,27.0
59.0,63.0,59.67,1.0,0.59,0.6,0.59,-0.51,-0.5,-0.51,-0.63,-0.61,-0.62,0.0,5.0,27.0
58.0,89.0,68.0,1.0,-0.35,-0.34,-0.34,-0.13,-0.11,-0.12,-0.95,-0.92,-0.93,0.0,0.0,27.0
55.0,56.0,55.8,0.99,-0.31,-0.3,-0.31,-0.85,-0.84,-0.85,0.42,0.42,0.42,0.0,5.0,27.0
53.0,53.0,53.0,1.0,-0.46,-0.45,-0.46,0.08,0.09,0.08,-0.9,-0.88,-0.89,0.0,5.0,27.0
60.0,91.0,79.67,0.99,-0.31,-0.3,-0.31,-0.85,-0.85,-0.85,0.41,0.42,0.42,0.0,5.0,27.0
50.0,52.0,51.33,1.0,-0.35,-0.34,-0.35,-0.14,-0.12,-0.13,-0.94,-0.92,-0.93,0.0,0.0,27.0
54.0,55.0,54.83,0.99,-0.34,-0.3,-0.31,-0.87,-0.86,-0.86,0.37,0.42,0.38,0.0,0.0,27.0
55.0,59.0,56.67,1.0,-0.35,-0.35,-0.35,-0.14,-0.11,-0.13,-0.94,-0.92,-0.93,0.0,0.0,27.0
52.0,56.0,53.17,1.0,-0.36,-0.34,-0.35,-0.14,-0.11,-0.13,-0.94,-0.92,-0.93,0.0,0.0,27.0
59.0,60.0,59.2,1.0,0.59,0.6,0.59,-0.51,-0.49,-0.5,-0.64,-0.62,-0.63,0.0,5.0,27.0
55.0,58.0,56.0,0.99,-0.31,-0.3,-0.31,-0.85,-0.85,-0.85,0.41,0.42,0.42,0.0,5.0,27.0
61.0,66.0,62.5,1.0,0.5,0.5,0.5,-0.63,-0.62,-0.62,-0.6,-0.59,-0.6,0.0,5.0,27.0
58.0,59.0,58.83,1.0,-0.35,-0.34,-0.35,-0.14,-0.12,-0.13,-0.94,-0.92,-0.93,0.0,0.0,27.0
91.0,92.0,91.8,1.0,0.59,0.6,0.59,-0.51,-0.49,-0.5,-0.64,-0.62,-0.63,0.0,5.0,27.0
53.0,58.0,55.29,1.01,-0.5,1.17,0.23,-0.6,1.22,0.11,-1.07,1.06,-0.64,0.0,5.0,27.0
56.0,58.0,56.5,1.0,-0.35,-0.34,-0.35,-0.14,-0.12,-0.13,-0.94,-0.92,-0.93,0.0,0.0,27.0
59.0,77.0,62.67,1.0,0.5,0.5,0.5,-0.63,-0.62,-0.62,-0.6,-0.59,-0.6,0.0,5.0,27.0
54.0,55.0,54.17,0.99,-0.31,-0.3,-0.3,-0.87,-0.87,-0.87,0.37,0.37,0.37,0.0,0.0,27.0
61.0,65.0,62.67,1.0,0.5,0.51,0.5,-0.62,-0.62,-0.62,-0.6,-0.59,-0.6,1.0,2.0,27.0
59.0,60.0,59.33,1.0,0.5,0.51,0.5,-0.62,-0.62,-0.62,-0.6,-0.59,-0.6,1.0,2.0,27.0
59.0,61.0,59.33,1.0,-0.47,-0.46,-0.47,-0.19,-0.16,-0.18,-0.87,-0.86,-0.87,1.0,2.0,27.0
59.0,60.0,59.67,1.0,0.59,0.61,0.6,-0.51,-0.49,-0.5,-0.63,-0.61,-0.62,1.0,2.0,27.0
57.0,61.0,58.5,1.0,0.5,0.51,0.51,-0.62,-0.62,-0.62,-0.6,-0.59,-0.59,1.0,2.0,27.0
55.0,57.0,56.2,1.0,0.7,0.71,0.71,-0.27,-0.26,-0.27,-0.66,-0.65,-0.65,1.0,2.0,27.0
54.0,58.0,56.83,0.99,-0.29,-0.28,-0.29,-0.88,-0.88,-0.88,0.36,0.37,0.37,1.0,3.0,27.0
52.0,54.0,53.33,1.0,-0.46,-0.45,-0.45,0.07,0.09,0.08,-0.9,-0.88,-0.89,1.0,3.0,27.0
59.0,63.0,60.5,1.0,0.71,0.73,0.72,-0.31,-0.29,-0.31,-0.63,-0.6,-0.62,1.0,2.0,27.0
57.0,59.0,58.17,1.0,0.58,0.59,0.59,-0.72,-0.72,-0.72,-0.37,-0.36,-0.36,1.0,2.0,27.0
56.0,58.0,56.83,1.0,-0.46,-0.45,-0.45,0.07,0.09,0.08,-0.9,-0.88,-0.89,1.0,3.0,27.0
65.0,81.0,76.6,1.0,-0.46,-0.45,-0.46,0.07,0.09,0.08,-0.9,-0.88,-0.89,1.0,2.0,27.0
55.0,60.0,57.0,1.0,-0.38,-0.37,-0.37,-0.16,-0.13,-0.15,-0.93,-0.91,-0.92,1.0,2.0,27.0
59.0,59.0,59.0,1.0,-0.46,-0.45,-0.45,0.07,0.09,0.08,-0.9,-0.88,-0.89,1.0,3.0,27.0
53.0,59.0,56.33,1.0,0.03,0.03,0.03,-0.01,-0.01,-0.01,-1.0,-1.0,-1.0,1.0,2.0,27.0
57.0,58.0,57.6,0.99,-0.29,-0.28,-0.29,-0.88,-0.88,-0.88,0.36,0.37,0.37,1.0,3.0,27.0
59.0,63.0,60.5,1.0,-0.39,-0.38,-0.39,-0.16,-0.14,-0.15,-0.92,-0.9,-0.91,1.0,2.0,27.0
59.0,63.0,59.83,1.0,-0.48,-0.47,-0.47,-0.19,-0.17,-0.18,-0.87,-0.86,-0.87,1.0,2.0,27.0
59.0,89.0,70.6,1.0,-0.46,-0.45,-0.45,0.07,0.09,0.08,-0.9,-0.88,-0.89,1.0,2.0,27.0
53.0,57.0,54.83,0.99,-0.32,-0.27,-0.3,-0.89,-0.85,-0.86,0.36,0.44,0.39,1.0,1.0,27.0
57.0,59.0,58.5,1.0,-0.43,-0.42,-0.43,-0.06,-0.03,-0.05,-0.91,-0.9,-0.9,1.0,2.0,27.0
60.0,61.0,60.17,1.0,0.59,0.61,0.6,-0.51,-0.49,-0.5,-0.63,-0.61,-0.62,1.0,2.0,27.0
57.0,60.0,58.33,1.0,0.5,0.51,0.51,-0.62,-0.61,-0.62,-0.6,-0.59,-0.6,1.0,2.0,27.0
53.0,54.0,53.33,0.99,-0.31,-0.3,-0.31,-0.85,-0.84,-0.85,0.42,0.42,0.42,1.0,2.0,27.0
54.0,57.0,54.5,0.99,-0.3,-0.27,-0.3,-0.88,-0.85,-0.86,0.37,0.4,0.39,1.0,1.0,27.0
58.0,59.0,58.33,1.0,-0.43,-0.42,-0.43,-0.06,-0.03,-0.05,-0.91,-0.9,-0.9,1.0,2.0,27.0
56.0,59.0,57.5,0.99,-0.11,-0.11,-0.11,-0.93,-0.92,-0.92,0.34,0.35,0.35,1.0,2.0,27.0
59.0,59.0,59.0,0.99,-0.31,-0.3,-0.31,-0.85,-0.85,-0.85,0.41,0.42,0.42,1.0,1.0,27.0
58.0,61.0,59.0,1.0,0.71,0.73,0.72,-0.31,-0.3,-0.31,-0.63,-0.61,-0.62,1.0,2.0,27.0
58.0,61.0,59.0,1.0,0.97,0.97,0.97,0.09,0.1,0.1,-0.21,-0.2,-0.21,1.0,2.0,27.0
54.0,57.0,55.5,1.0,-0.46,-0.45,-0.45,0.07,0.09,0.08,-0.9,-0.88,-0.89,1.0,2.0,27.0
52.0,59.0,55.67,1.0,-0.38,-0.37,-0.37,-0.16,-0.13,-0.15,-0.92,-0.91,-0.92,1.0,2.0,27.0
52.0,68.0,60.2,1.0,0.03,0.03,0.03,-0.01,-0.01,-0.01,-1.0,-1.0,-1.0,1.0,2.0,27.0
50.0,54.0,51.86,1.0,0.03,0.03,0.03,-0.01,-0.01,-0.01,-1.0,-1.0,-1.0,1.0,2.0,27.0
57.0,58.0,57.17,0.99,-0.29,-0.28,-0.29,-0.88,-0.88,-0.88,0.36,0.37,0.37,1.0,3.0,27.0
58.0,59.0,58.67,1.0,0.5,0.51,0.51,-0.62,-0.62,-0.62,-0.6,-0.59,-0.6,1.0,2.0,27.0
59.0,60.0,59.4,1.0,-0.47,-0.46,-0.47,-0.19,-0.17,-0.18,-0.87,-0.86,-0.87,1.0,2.0,27.0
50.0,55.0,52.5,0.99,-0.31,-0.3,-0.31,-0.85,-0.84,-0.85,0.42,0.42,0.42,1.0,2.0,27.0
50.0,52.0,51.17,1.0,-0.46,-0.45,-0.45,0.07,0.1,0.08,-0.9,-0.88,-0.89,1.0,2.0,27.0
53.0,57.0,55.83,1.0,-0.82,-0.28,-0.36,-0.97,-0.36,-0.81,0.19,0.47,0.41,1.0,3.0,27.0
55.0,56.0,55.2,0.99,-0.27,-0.27,-0.27,-0.76,-0.75,-0.76,0.58,0.59,0.59,1.0,3.0,27.0
59.0,60.0,59.33,1.0,0.59,0.6,0.59,-0.51,-0.49,-0.5,-0.64,-0.61,-0.63,1.0,2.0,27.0
55.0,58.0,56.43,1.0,-0.38,-0.37,-0.38,-0.16,-0.13,-0.15,-0.93,-0.91,-0.92,1.0,2.0,27.0
58.0,61.0,59.33,1.0,-0.48,-0.47,-0.47,-0.19,-0.17,-0.18,-0.87,-0.86,-0.86,1.0,2.0,27.0
57.0,61.0,59.43,1.0,0.5,0.51,0.51,-0.62,-0.62,-0.62,-0.6,-0.59,-0.6,1.0,2.0,27.0
54.0,58.0,56.33,1.0,0.02,0.03,0.03,-0.01,-0.01,-0.01,-1.0,-1.0,-1.0,1.0,2.0,27.0
58.0,63.0,61.0,0.99,-0.04,-0.01,-0.02,-0.89,-0.84,-0.88,0.42,0.48,0.46,0.0,5.0,1.0
58.0,63.0,60.67,1.0,-0.52,-0.51,-0.52,0.01,0.03,0.02,-0.87,-0.85,-0.86,0.0,5.0,1.0
63.0,63.0,63.0,1.0,-0.38,-0.37,-0.38,-0.15,-0.13,-0.14,-0.92,-0.91,-0.92,0.0,5.0,1.0
62.0,66.0,65.33,0.99,-0.03,-0.02,-0.02,-0.86,-0.86,-0.86,0.49,0.5,0.49,0.0,5.0,1.0
59.0,60.0,59.67,1.0,-0.44,-0.43,-0.43,-0.77,-0.76,-0.76,-0.48,-0.47,-0.47,0.0,5.0,1.0
56.0,66.0,58.86,1.0,-0.52,-0.51,-0.51,0.1,0.11,0.11,-0.86,-0.85,-0.85,0.0,5.0,1.0
64.0,68.0,65.4,1.0,-0.56,-0.54,-0.55,0.31,0.33,0.32,-0.78,-0.77,-0.77,0.0,0.0,1.0
60.0,61.0,60.6,1.0,-0.51,-0.51,-0.51,0.11,0.12,0.11,-0.86,-0.85,-0.86,0.0,5.0,1.0
59.0,61.0,60.0,0.99,-0.02,-0.02,-0.02,-0.89,-0.89,-0.89,0.43,0.44,0.44,0.0,5.0,1.0
57.0,64.0,61.67,1.0,-0.41,-0.4,-0.4,-0.47,-0.45,-0.46,-0.8,-0.78,-0.79,0.0,5.0,1.0
59.0,60.0,59.83,0.99,-0.12,-0.11,-0.11,-0.73,-0.73,-0.73,0.66,0.67,0.66,0.0,0.0,1.0
64.0,68.0,67.0,1.0,-0.56,-0.55,-0.55,0.31,0.33,0.32,-0.78,-0.77,-0.77,0.0,0.0,1.0
64.0,65.0,64.33,1.0,-0.56,-0.55,-0.55,0.31,0.32,0.32,-0.78,-0.77,-0.77,0.0,0.0,1.0
63.0,65.0,63.8,1.0,-0.59,-0.58,-0.58,0.24,0.26,0.25,-0.78,-0.77,-0.78,0.0,5.0,1.0
57.0,65.0,62.0,1.0,-0.55,-0.54,-0.55,0.37,0.38,0.38,-0.76,-0.75,-0.75,0.0,0.0,1.0
62.0,63.0,62.5,1.0,-0.43,-0.25,-0.36,-0.13,0.36,0.03,-1.02,-0.8,-0.93,0.0,5.0,1.0
62.0,64.0,63.33,1.0,-0.56,-0.55,-0.55,0.31,0.33,0.32,-0.78,-0.77,-0.77,0.0,0.0,1.0
61.0,63.0,62.0,1.0,-0.55,-0.54,-0.55,0.37,0.38,0.37,-0.76,-0.75,-0.75,0.0,0.0,1.0
61.0,63.0,62.0,1.0,-0.39,-0.37,-0.38,-0.17,-0.15,-0.16,-0.92,-0.91,-0.91,0.0,5.0,1.0
62.0,64.0,63.0,1.0,-0.51,-0.51,-0.51,0.11,0.12,0.11,-0.86,-0.85,-0.86,0.0,5.0,1.0
79.0,86.0,81.17,1.0,-0.71,-0.38,-0.5,-0.49,0.96,0.41,-0.88,0.01,-0.66,0.0,0.0,1.0
65.0,75.0,69.14,1.0,-0.56,-0.55,-0.55,0.31,0.32,0.32,-0.78,-0.77,-0.77,0.0,0.0,1.0
60.0,62.0,61.67,1.0,-0.43,-0.43,-0.43,-0.77,-0.76,-0.77,-0.48,-0.47,-0.47,0.0,5.0,1.0
67.0,68.0,67.5,1.0,-0.59,-0.58,-0.58,0.24,0.26,0.25,-0.78,-0.77,-0.78,0.0,5.0,1.0
72.0,73.0,72.5,1.0,-0.57,-0.53,-0.55,0.3,0.33,0.31,-0.8,-0.76,-0.78,0.0,0.0,1.0
61.0,63.0,61.83,1.0,-0.33,-0.32,-0.32,-0.78,-0.77,-0.78,-0.54,-0.53,-0.54,0.0,5.0,1.0
64.0,72.0,67.86,1.0,-0.55,-0.54,-0.55,0.37,0.38,0.37,-0.76,-0.75,-0.75,0.0,0.0,1.0
66.0,70.0,68.17,1.0,-0.55,-0.55,-0.55,0.31,0.32,0.32,-0.78,-0.77,-0.78,0.0,0.0,1.0
68.0,77.0,72.17,1.0,-0.56,-0.55,-0.55,0.31,0.32,0.32,-0.78,-0.77,-0.78,0.0,0.0,1.0
64.0,67.0,65.0,0.99,0.07,0.08,0.07,-0.9,-0.89,-0.9,0.42,0.42,0.42,0.0,5.0,1.0
60.0,60.0,60.0,0.99,-0.11,-0.11,-0.11,-0.73,-0.73,-0.73,0.66,0.66,0.66,0.0,0.0,1.0
56.0,57.0,56.83,1.0,-0.52,-0.51,-0.51,0.1,0.12,0.11,-0.86,-0.84,-0.85,0.0,5.0,1.0
58.0,64.0,61.0,0.99,-0.07,-0.07,-0.07,-0.84,-0.83,-0.83,0.53,0.54,0.53,0.0,0.0,1.0
61.0,67.0,65.2,1.0,-0.59,-0.58,-0.58,0.24,0.26,0.25,-0.78,-0.77,-0.78,0.0,5.0,1.0
59.0,62.0,60.5,0.99,-0.3,-0.29,-0.29,-0.51,-0.5,-0.5,0.81,0.81,0.81,0.0,0.0,1.0
59.0,61.0,60.17,1.0,-0.52,-0.5,-0.51,0.05,0.16,0.11,-0.88,-0.84,-0.86,0.0,5.0,1.0
59.0,64.0,61.57,1.0,-0.4,-0.39,-0.39,-0.17,-0.14,-0.15,-0.91,-0.9,-0.91,0.0,5.0,1.0
60.0,68.0,62.83,0.99,-0.02,-0.01,-0.01,-0.85,-0.84,-0.84,0.52,0.53,0.52,0.0,5.0,1.0
65.0,67.0,66.14,1.0,-0.55,-0.55,-0.55,0.28,0.3,0.29,-0.81,-0.77,-0.79,0.0,0.0,1.0
63.0,64.0,63.8,1.0,-0.59,-0.58,-0.59,0.24,0.25,0.25,-0.78,-0.77,-0.77,0.0,5.0,1.0
61.0,65.0,63.5,0.99,0.07,0.08,0.07,-0.9,-0.9,-0.9,0.41,0.42,0.42,0.0,5.0,1.0
62.0,64.0,63.17,1.0,-0.59,-0.58,-0.58,0.25,0.26,0.25,-0.78,-0.77,-0.78,0.0,5.0,1.0
65.0,66.0,65.67,1.0,-0.56,-0.55,-0.55,0.31,0.32,0.31,-0.78,-0.77,-0.78,0.0,0.0,1.0
63.0,65.0,64.67,1.0,-0.59,-0.58,-0.58,0.24,0.26,0.25,-0.78,-0.77,-0.78,0.0,5.0,1.0
64.0,68.0,65.33,0.99,0.07,0.08,0.07,-0.9,-0.89,-0.9,0.42,0.43,0.42,0.0,5.0,1.0
69.0,69.0,69.0,1.0,-0.56,-0.55,-0.55,0.27,0.3,0.29,-0.8,-0.78,-0.79,0.0,0.0,1.0
64.0,66.0,65.0,0.99,-0.42,-0.41,-0.41,-0.9,-0.9,-0.9,0.07,0.08,0.07,0.0,5.0,1.0
61.0,63.0,62.0,0.99,-0.07,-0.07,-0.07,-0.84,-0.83,-0.83,0.53,0.54,0.54,0.0,0.0,1.0
63.0,63.0,63.0,1.0,-0.38,-0.37,-0.38,-0.15,-0.12,-0.14,-0.92,-0.91,-0.92,0.0,5.0,1.0
61.0,68.0,64.0,1.0,-0.52,-0.52,-0.52,0.0,0.02,0.01,-0.86,-0.85,-0.86,0.0,5.0,1.0
61.0,62.0,61.83,0.99,-0.07,-0.07,-0.07,-0.84,-0.83,-0.84,0.53,0.54,0.53,0.0,0.0,1.0
59.0,61.0,60.0,1.0,-0.52,-0.51,-0.51,0.02,0.03,0.02,-0.87,-0.85,-0.86,0.0,5.0,1.0
61.0,63.0,62.0,1.0,-0.53,-0.52,-0.52,-0.0,0.02,0.01,-0.86,-0.85,-0.86,0.0,5.0,1.0
68.0,72.0,69.17,1.0,-0.59,-0.58,-0.59,0.24,0.26,0.25,-0.78,-0.77,-0.78,0.0,5.0,1.0
63.0,66.0,64.5,1.0,-0.55,-0.54,-0.55,0.36,0.38,0.37,-0.76,-0.75,-0.75,0.0,0.0,1.0
60.0,60.0,60.0,0.99,-0.29,-0.29,-0.29,-0.5,-0.49,-0.5,0.81,0.81,0.81,0.0,0.0,1.0
62.0,63.0,62.83,1.0,-0.38,-0.37,-0.38,-0.15,-0.13,-0.14,-0.92,-0.91,-0.92,0.0,5.0,1.0
60.0,61.0,60.8,1.0,-0.41,-0.4,-0.4,-0.47,-0.45,-0.46,-0.8,-0.79,-0.79,0.0,5.0,1.0
64.0,65.0,64.67,0.99,-0.42,-0.41,-0.41,-0.9,-0.9,-0.9,0.07,0.08,0.07,0.0,5.0,1.0
62.0,63.0,62.17,1.0,-0.5,-0.49,-0.49,0.06,0.07,0.06,-0.88,-0.86,-0.87,0.0,0.0,1.0
