Min_hr,Max_hr,Mean_hr,Men_acc_sqrt,Min_acc_x,Max_acc_x,Mean_acc_x,Min_acc_y,Max_acc_y,Mean_acc_y,Min_acc_z,Max_acc_z,Mean_acc_z,Etiquetas multiclase,Etiquetas binarias,ID
-0.050648289608613034,-0.1196617873089635,-0.06035141923985704,0.3459215125172375,-1.2694087448621127,-1.4710707721082887,-1.4595682382852448,0.5060229178539464,0.28076173666119086,0.41531203854996845,-0.40622558320003604,-0.5343090802956101,-0.47481535302986344,5.0,0.0,22.0
0.37268293634287303,0.4464922220315987,0.500818001728777,0.3459215125172375,1.8490893370129415,1.667272955167687,1.8596899376355238,0.3430425334101647,0.12094112213388493,0.24144867119659408,-0.5271328102090453,-0.6519253020354224,-0.5977938145742742,5.0,0.0,22.0
1.3251781947337167,0.9182872298154006,1.1466729898617685,0.3459215125172375,-0.7797272278734677,-0.978272996750904,-0.9616795118971294,0.1800621489663831,-0.058857069209334194,0.04585238292404793,-0.6026998270896763,-0.7401374683402818,-0.6746553530395308,5.0,0.0,22.0
0.16101732336713,0.9182872298154006,0.5681583322450128,0.3459215125172375,-1.8621811075325776,-2.0416787225221023,-2.095759388670059,-0.6348397732525249,-0.8379825650299504,-0.801731532923652,0.4401250058630295,0.28900447188307693,0.3860338777810115,0.0,0.0,22.0
0.05518451687925848,-0.1196617873089635,-0.00933601733361758,0.3459215125172375,-1.2694087448621127,-1.4710707721082887,-1.4595682382852448,0.4856503697984737,0.2607841598452776,0.3935791176307966,-0.40622558320003604,-0.5343090802956101,-0.47481535302986344,5.0,0.0,22.0
0.2668501298550015,0.06905621580455724,0.19472559029134026,0.3459215125172375,-0.7797272278734677,-0.9523362717320942,-0.9340190270977898,0.1393170528554377,-0.03887949239342095,0.04585238292404793,-0.6178132304658025,-0.7401374683402818,-0.6900276607325823,5.0,0.0,22.0
0.37268293634287303,0.9182872298154006,0.4579650641275357,0.3459215125172375,-0.23850028804391293,2.445374705731978,1.2788197568493893,-1.9386828488027783,1.6192593833273776,0.2197157502774223,-0.8898544912360736,1.17112613493167,-0.4901876607229148,0.0,0.0,22.0
-0.4739795155600991,-0.6858157966495257,-0.5511195855778809,0.3459215125172375,1.900634759853851,1.719146405205306,1.9150109072342032,-0.5737221290861069,-0.7780498345822108,-0.7365327701661367,-0.3457719696955313,-0.49020299714318033,-0.4133261222576581,0.0,0.0,22.0
-0.050648289608613034,-0.1196617873089635,-0.056270187087358696,3.9034312751264224,-0.6250909593507378,1.018854829697444,-0.43613030070967457,-1.4293691474159604,3.636994641734615,1.501958084508558,-1.6606380634185085,-0.03444013790140728,-0.3979538145646067,0.0,0.0,22.0
-0.3681467090722276,-0.497097793536005,-0.4684746344897727,0.3459215125172375,-0.7797272278734677,-0.9523362717320942,-0.9340190270977898,0.1800621489663831,-0.058857069209334194,0.04585238292404793,-0.6178132304658025,-0.7401374683402818,-0.6900276607325823,5.0,0.0,22.0
0.16101732336713,0.9182872298154006,0.5855035688931344,0.3459215125172375,1.8490893370129415,1.667272955167687,1.8596899376355238,0.322669985354692,0.10096354531797169,0.2197157502774223,-0.5271328102090453,-0.6519253020354224,-0.5977938145742742,5.0,0.0,22.0
0.47851574283074455,0.6352102251451195,0.6538642074474954,0.3459215125172375,-0.7797272278734677,-0.9523362717320942,-0.9340190270977898,0.1596896009109104,-0.07883464602524744,0.04585238292404793,-0.6178132304658025,-0.7401374683402818,-0.6900276607325823,5.0,0.0,22.0
0.6901813558064875,0.7295692267018798,0.6875343727056132,0.3459215125172375,-1.8106356846916674,-1.9898052724844828,-2.0404384190713794,-0.6755848693634704,-0.877937718661777,-0.8451973747619955,0.36455798898239866,0.21549433329569415,0.30917233931575483,5.0,0.0,22.0
0.2668501298550015,1.012646231372161,0.7558950112599743,0.3459215125172375,-1.7848629732712125,-1.9898052724844828,-2.0404384190713794,-0.6755848693634704,-0.8579601418458637,-0.8451973747619955,0.34944458560627245,0.20079230557821762,0.29380003162270346,5.0,0.0,22.0
0.9018469687822306,0.9182872298154006,1.0344391056680422,0.3459215125172375,-1.8106356846916674,-1.9898052724844828,-2.0404384190713794,-0.6755848693634704,-0.877937718661777,-0.8451973747619955,0.36455798898239866,0.21549433329569415,0.30917233931575483,5.0,0.0,22.0
0.47851574283074455,0.16341521736131762,0.29675639410381915,0.3459215125172375,1.8490893370129415,1.667272955167687,1.8596899376355238,0.3430425334101647,0.12094112213388493,0.24144867119659408,-0.5271328102090453,-0.666627329752899,-0.5977938145742742,5.0,0.0,22.0
0.05518451687925848,0.06905621580455724,-0.006275093219243096,2.12467639382183,-0.34159113372573285,2.31569108063793,1.3341407264480687,-2.2442710696348684,1.2596630006409393,-0.3888060354593879,-1.4943906262811202,2.803051211571568,-0.25960304532714473,0.0,0.0,22.0
0.47851574283074455,0.06905621580455724,0.2794111574556976,0.3459215125172375,1.900634759853851,1.7450831302241157,1.9426713920335428,0.4856503697984737,0.3207168902930173,0.458777880388312,-0.496906003456793,-0.6078192188829928,-0.5516768914951202,5.0,0.0,22.0
0.47851574283074455,0.257774218918078,0.3610358005056804,-1.432833368787355,2.0810437397970363,1.9007034803369742,2.1086343008295816,-1.2867613110276517,-1.477265023139174,-1.4971850023371494,0.7877332835139315,0.7300653034073735,0.770341570107295,5.0,0.0,22.0
0.47851574283074455,0.35213322047483836,0.43245736317441597,0.3459215125172375,1.8490893370129415,1.667272955167687,1.8596899376355238,0.322669985354692,0.12094112213388493,0.24144867119659408,-0.5271328102090453,-0.666627329752899,-0.5977938145742742,5.0,0.0,22.0
0.47851574283074455,0.8239282282586402,0.6059097296556304,0.3459215125172375,1.8233166255924864,1.6413362301488774,1.8596899376355238,0.322669985354692,0.10096354531797169,0.2197157502774223,-0.5271328102090453,-0.666627329752899,-0.6131661222673255,5.0,0.0,22.0
-0.3681467090722276,-0.497097793536005,-0.507246339938515,2.12467639382183,0.04499953758109201,-0.018614171054944537,0.0340979408791011,2.2376895025691264,2.0387884964615557,2.2843432375987427,0.4250116024869034,0.3478125827529831,0.4014061854740628,0.0,0.0,22.0
0.37268293634287303,0.16341521736131762,0.2998173182181937,0.3459215125172375,1.0759079943992915,0.8891712046033954,1.0298753936553315,0.322669985354692,0.08098596850205846,0.2197157502774223,-0.7236070540986855,-0.8577536900800942,-0.813006122276993,5.0,0.0,22.0
0.37268293634287303,1.2013642344856816,0.9089412169786927,0.3459215125172375,-1.8106356846916674,-1.9379318224468634,-2.0127779342720395,-0.6959574174189431,-0.877937718661777,-0.8451973747619955,0.34944458560627245,0.20079230557821762,0.29380003162270346,5.0,0.0,22.0
0.47851574283074455,0.6352102251451195,0.6191737341512522,0.3459215125172375,-1.8364083961121225,-2.0157419975032926,-2.068098903870719,-0.6348397732525249,-0.8379825650299504,-0.801731532923652,0.39478479573465103,0.2448983887306473,0.33991695470185745,5.0,0.0,22.0
0.2668501298550015,0.06905621580455724,0.21105051890133653,-1.432833368787355,2.0810437397970363,1.9007034803369742,2.1086343008295816,-1.2867613110276517,-1.4972425999550871,-1.5189179232563212,0.848186897018436,0.6712571925374673,0.7857138778003463,5.0,0.0,22.0
-0.3681467090722276,-0.025302785752203127,-0.1287120577942181,-1.432833368787355,0.8181808801947418,0.6298039544152982,0.7532705456619343,-1.5516044357487968,-1.736973521746046,-1.7797129742863829,1.3922694185589783,1.2005301903666232,1.3391169547501944,0.0,0.0,22.0
0.584348549318616,0.7295692267018798,0.6701891360574916,0.3459215125172375,1.8233166255924864,1.667272955167687,1.8596899376355238,0.3430425334101647,0.1409186989497982,0.24144867119659408,-0.5271328102090453,-0.666627329752899,-0.5977938145742742,5.0,0.0,22.0
0.6901813558064875,0.6352102251451195,0.6875343727056132,0.3459215125172375,-0.7797272278734677,-0.9523362717320942,-0.9340190270977898,0.1596896009109104,-0.07883464602524744,0.04585238292404793,-0.6026998270896763,-0.7401374683402818,-0.6900276607325823,5.0,0.0,22.0
1.007679775270102,1.295723236042442,1.1568760702430156,0.3459215125172375,-0.7797272278734677,-0.9523362717320942,-0.9340190270977898,0.1596896009109104,-0.07883464602524744,0.04585238292404793,-0.6178132304658025,-0.7401374683402818,-0.6900276607325823,5.0,0.0,22.0
0.05518451687925848,-0.1196617873089635,-0.02668125398173917,-1.432833368787355,0.8181808801947418,0.6038672293964885,0.7532705456619343,-1.531231887693324,-1.736973521746046,-1.7797129742863829,1.4073828219351046,1.2152322180840998,1.3544892624432459,0.0,0.0,22.0
1.2193453882458452,0.9182872298154006,1.0783123513074073,0.3459215125172375,-1.7848629732712125,-1.9898052724844828,-2.0404384190713794,-0.6755848693634704,-0.877937718661777,-0.8451973747619955,0.34944458560627245,0.20079230557821762,0.29380003162270346,5.0,0.0,22.0
-0.3681467090722276,-0.497097793536005,-0.41745923258353324,0.3459215125172375,-0.7797272278734677,-0.9523362717320942,-0.9340190270977898,0.1800621489663831,-0.058857069209334194,0.04585238292404793,-0.6178132304658025,-0.7548394960577584,-0.6900276607325823,5.0,0.0,22.0
0.47851574283074455,0.4464922220315987,0.43245736317441597,0.3459215125172375,-0.7797272278734677,1.6413362301488774,0.9192334544579728,-1.4904867915823787,0.1409186989497982,0.08931822476239151,-0.7387204574748117,2.097353881132693,-0.5363045838020689,5.0,0.0,22.0
0.37268293634287303,0.4464922220315987,0.3957262738019236,0.3459215125172375,1.8490893370129415,1.667272955167687,1.8596899376355238,0.36341508146563745,0.1409186989497982,0.26318159211576586,-0.5271328102090453,-0.666627329752899,-0.5977938145742742,5.0,0.0,22.0
0.37268293634287303,0.16341521736131762,0.2794111574556976,0.3459215125172375,-1.2694087448621127,-1.4710707721082887,-1.4595682382852448,0.7504934945196187,0.5204926584521496,0.6761070895800299,-0.3608853730716575,-0.49020299714318033,-0.4286984299507094,5.0,0.0,22.0
0.37268293634287303,0.5408512235883591,0.4630666043181593,0.3459215125172375,1.8233166255924864,1.6413362301488774,1.8596899376355238,0.3430425334101647,0.12094112213388493,0.26318159211576586,-0.5271328102090453,-0.666627329752899,-0.6131661222673255,5.0,0.0,22.0
0.584348549318616,0.16341521736131762,0.3814419612681765,-1.432833368787355,1.5140440885470265,1.8488300302993548,2.053313331230902,-1.673839724081633,-1.5172201767710005,-1.5189179232563212,-0.04350390217300798,0.9505957191695219,0.8625754162656031,5.0,0.0,22.0
0.47851574283074455,0.257774218918078,0.3814419612681765,0.3459215125172375,1.0759079943992915,0.8891712046033954,1.0298753936553315,0.3022974372992193,0.08098596850205846,0.19798282935825048,-0.7236070540986855,-0.8577536900800942,-0.813006122276993,5.0,0.0,22.0
1.1135125817579736,0.7295692267018798,0.9120021410930672,0.3459215125172375,-2.1456809331575823,4.15719855697342,0.31070278887249847,-1.9183103007473055,1.419483615168245,-0.2366755890251854,-0.8747410878599474,2.0532477979802635,-0.12125227608968271,0.0,0.0,22.0
0.05518451687925848,-0.21402078886572387,-0.06035141923985704,0.3459215125172375,1.8233166255924864,1.667272955167687,1.8596899376355238,0.36341508146563745,0.16089627576571142,0.2849145130349377,-0.5271328102090453,-0.666627329752899,-0.5977938145742742,5.0,0.0,22.0
0.47851574283074455,0.16341521736131762,0.3671576487344294,2.12467639382183,-0.7281818050325577,2.445374705731978,0.25538181927381903,-1.5516044357487968,3.676949795366441,1.8496848192153068,-0.2399781460626482,1.376954522976342,0.32454464700880614,0.0,0.0,22.0
0.2668501298550015,-0.025302785752203127,0.09269478647886134,-1.432833368787355,2.0552710283765814,1.8488300302993548,2.080973816030242,-1.2867613110276517,-1.5172201767710005,-1.5189179232563212,0.8935271071468146,0.715363275689897,0.8472031085725517,5.0,0.0,22.0
0.9018469687822306,0.6352102251451195,0.7722199398699706,0.3459215125172375,1.8490893370129415,1.667272955167687,1.8596899376355238,0.3430425334101647,0.12094112213388493,0.24144867119659408,-0.5271328102090453,-0.666627329752899,-0.5977938145742742,5.0,0.0,22.0
0.2668501298550015,0.16341521736131762,0.14779142053759914,0.3459215125172375,1.0759079943992915,0.9151079296222052,1.0575358784546713,0.28192488924374665,0.08098596850205846,0.1762499084390787,-0.7387204574748117,-0.8430516623626176,-0.813006122276993,5.0,0.0,22.0
0.9018469687822306,0.8239282282586402,0.8915959803305711,0.3459215125172375,1.8233166255924864,1.667272955167687,1.8596899376355238,0.322669985354692,0.18087385258162464,0.24144867119659408,-0.5271328102090453,-0.6519253020354224,-0.5977938145742742,5.0,0.0,22.0
0.584348549318616,0.8239282282586402,0.8069104131662138,0.3459215125172375,-1.7848629732712125,-1.9898052724844828,-2.0404384190713794,-0.6755848693634704,-0.877937718661777,-0.8451973747619955,0.34944458560627245,0.20079230557821762,0.29380003162270346,5.0,0.0,22.0
-0.26231390258435605,-0.4027387919792446,-0.3501189020672975,2.12467639382183,0.12231767184245698,-0.04455089607375427,0.0340979408791011,2.2376895025691264,1.9788557660138157,2.2843432375987427,0.39478479573465103,0.33311055503550663,0.4167784931671142,0.0,0.0,22.0
1.1135125817579736,0.9182872298154006,0.9936267841430501,0.3459215125172375,1.0759079943992915,0.8891712046033954,1.0298753936553315,0.322669985354692,0.08098596850205846,0.19798282935825048,-0.7236070540986855,-0.8577536900800942,-0.813006122276993,5.0,0.0,22.0
0.2668501298550015,0.06905621580455724,0.19472559029134026,0.3459215125172375,-0.7024090936121027,-0.874526096675665,-0.8510375726997705,0.6078856581313099,0.38064962074075703,0.5239766431458274,-0.6026998270896763,-0.7401374683402818,-0.6900276607325823,5.0,0.0,22.0
0.37268293634287303,-0.025302785752203127,0.17738035364321866,-1.432833368787355,2.0294983169561265,1.8747667553181644,2.080973816030242,-1.2867613110276517,-1.5172201767710005,-1.5189179232563212,0.8784137037706884,0.715363275689897,0.8318308008795003,5.0,0.0,22.0
0.7960141622943591,0.6352102251451195,0.7691590157555961,0.3459215125172375,1.0759079943992915,0.8891712046033954,1.0298753936553315,0.3022974372992193,0.10096354531797169,0.2197157502774223,-0.7387204574748117,-0.8577536900800942,-0.813006122276993,5.0,0.0,22.0
1.007679775270102,0.9182872298154006,1.061987422697411,0.3459215125172375,-1.2694087448621127,-1.4710707721082887,-1.4872287230845846,0.7708660425750914,0.5404702352680629,0.6978400104992017,-0.3457719696955313,-0.4755009694257038,-0.4133261222576581,5.0,0.0,22.0
0.47851574283074455,0.06905621580455724,0.2794111574556976,0.3459215125172375,1.5398167999674817,1.9007034803369742,1.9150109072342032,-0.8181927057517795,0.46055992800441,0.3066474339541094,-0.5573596169612978,-0.24026852594607906,-0.5670491991881715,5.0,0.0,22.0
0.16101732336713,-0.21402078886572387,-0.02668125398173917,-1.432833368787355,-0.34159113372573285,-0.5632853964499485,-0.49145127030835395,-0.5329770329751616,-0.7580722577662975,-0.7147998492469649,2.0421457637324036,1.8327173822181149,2.0154984932444533,2.0,1.0,22.0
0.16101732336713,0.35213322047483836,0.1263649517369792,0.3459215125172375,-1.8106356846916674,-1.9898052724844828,-2.0404384190713794,-0.6144672251970523,-0.8180049882140371,-0.7799986120044802,0.304104375477894,0.14198419470831136,0.2476831085435494,1.0,1.0,22.0
0.6901813558064875,0.35213322047483836,0.5518334036350164,0.3459215125172375,1.2047715515015667,1.0447915547162536,1.1958383024513701,0.5671405620203644,0.3406944671089306,0.4805108013074838,-0.6933802473464332,-0.8136476069276647,-0.7668891991978388,2.0,1.0,22.0
0.05518451687925848,-0.30837979042248426,-0.1287120577942181,0.3459215125172375,-1.2951814562825676,-1.4710707721082887,-1.4872287230845846,0.526395465909419,0.30073931347710403,0.43704495946914024,-0.3911121798239099,-0.5196070525781334,-0.45944304533681213,3.0,1.0,22.0
-0.4739795155600991,-0.5914567950927654,-0.5194900363960122,0.3459215125172375,-1.0632270534984727,-1.237640246939001,-1.2382843598905267,0.36341508146563745,0.1409186989497982,0.26318159211576586,-0.5120194068329191,-0.6519253020354224,-0.5977938145742742,2.0,1.0,22.0
-0.15648109609648456,-0.4027387919792446,-0.25114902236919306,0.3459215125172375,-1.8621811075325776,-2.0416787225221023,-2.095759388670059,-0.6348397732525249,-0.8379825650299504,-0.801731532923652,0.4250116024869034,0.2743024441656004,0.37066157008796013,2.0,1.0,22.0
0.37268293634287303,-0.025302785752203127,0.17738035364321866,0.3459215125172375,-2.0168173760553074,-2.22323579765377,-2.2893827822654367,0.36341508146563745,0.12094112213388493,0.24144867119659408,0.24365076197338925,0.08317608383840518,0.17082157007829274,1.0,1.0,22.0
0.05518451687925848,-0.025302785752203127,0.045760616725120225,0.3459215125172375,1.9521801826947611,1.7710198552429255,1.9703318768328826,0.7504934945196187,0.5005150816362364,0.6543741686608581,-0.4364523899522884,-0.5637131357305631,-0.5055599684159662,1.0,1.0,22.0
0.9018469687822306,0.5408512235883591,0.7487528549931001,0.3459215125172375,1.1274534172402015,0.9669813796598244,1.112856848053351,0.322669985354692,0.12094112213388493,0.24144867119659408,-0.7236070540986855,-0.8430516623626176,-0.7976338145839416,3.0,1.0,22.0
0.2668501298550015,-0.1196617873089635,0.07534954983073974,-1.432833368787355,-0.36736384514618786,-0.5892221214687582,-0.5191117551076937,-0.5126044849196889,-0.7380946809503842,-0.6930669283277932,2.0421457637324036,1.8327173822181149,2.0154984932444533,2.0,1.0,22.0
-0.050648289608613034,-0.30837979042248426,-0.16238222305233596,0.3459215125172375,-0.16118215378254797,-0.3298548712806611,-0.27016739191363603,0.8931013309079278,0.640358119347629,0.8065046150950608,-0.663153440594181,-0.798945579210188,-0.7515168915047876,2.0,1.0,22.0
-0.26231390258435605,-0.5914567950927654,-0.43480446923165483,0.3459215125172375,-0.8054999392939227,-0.978272996750904,-0.9616795118971294,0.1596896009109104,-0.058857069209334194,0.04585238292404793,-0.6026998270896763,-0.7401374683402818,-0.6746553530395308,2.0,1.0,22.0
0.6901813558064875,0.35213322047483836,0.5038789258431515,0.3459215125172375,1.2047715515015667,1.0447915547162536,1.1958383024513701,0.5467680139648917,0.3406944671089306,0.4805108013074838,-0.6933802473464332,-0.8136476069276647,-0.7668891991978388,2.0,1.0,22.0
0.2668501298550015,-0.1196617873089635,0.07534954983073974,0.3459215125172375,2.1583618740584014,1.9785136553934033,2.2192762400269403,1.1783170036845456,0.9200441947704143,1.110765507963466,-0.1492977258058911,-0.2990766368159852,-0.21348612224799066,2.0,1.0,22.0
-0.050648289608613034,-0.21402078886572387,-0.06035141923985704,0.3459215125172375,1.4624986657061165,1.278222079885541,1.4447826656454277,0.6486307542422554,0.40062719755667026,0.567442484984171,-0.6178132304658025,-0.7548394960577584,-0.6900276607325823,2.0,1.0,22.0
0.16101732336713,-0.21402078886572387,-0.02668125398173917,0.3459215125172375,-1.2951814562825676,-1.4710707721082887,-1.4872287230845846,0.5467680139648917,0.30073931347710403,0.43704495946914024,-0.3911121798239099,-0.5196070525781334,-0.45944304533681213,3.0,1.0,22.0
0.16101732336713,-0.21402078886572387,-0.02668125398173917,0.3459215125172375,-0.16118215378254797,-0.3298548712806611,-0.27016739191363603,0.8931013309079278,0.640358119347629,0.8282375360142326,-0.663153440594181,-0.798945579210188,-0.7515168915047876,2.0,1.0,22.0
0.16101732336713,-0.025302785752203127,0.07534954983073974,0.3459215125172375,2.1583618740584014,1.9785136553934033,2.1916157552276005,1.0968268114626547,0.8800890411385879,1.0672996661251222,-0.19463793593426965,-0.3284806922509383,-0.25960304532714473,2.0,1.0,22.0
0.37268293634287303,0.06905621580455724,0.25900499669320154,0.3459215125172375,2.1583618740584014,1.9785136553934033,2.1916157552276005,1.157944455629073,0.9000666179545012,1.110765507963466,-0.16441112918201728,-0.3137786645334617,-0.228858429941042,2.0,1.0,22.0
0.16101732336713,-0.025302785752203127,0.07534954983073974,0.3459215125172375,-1.2951814562825676,-1.4710707721082887,-1.4872287230845846,0.526395465909419,0.30073931347710403,0.458777880388312,-0.3911121798239099,-0.5196070525781334,-0.45944304533681213,3.0,1.0,22.0
0.584348549318616,0.6352102251451195,0.5855035688931344,0.3459215125172375,2.1325891626379465,1.9525769303745937,2.163955270428261,1.1783170036845456,0.9200441947704143,1.1324984288826376,-0.16441112918201728,-0.3137786645334617,-0.24423073763409336,2.0,1.0,22.0
0.05518451687925848,-0.1196617873089635,-0.04402649062986076,0.3459215125172375,1.4882713771265714,1.3041588049043509,1.4724431504447675,0.6893758503532007,0.4405823511884967,0.6109083268225146,-0.6026998270896763,-0.7401374683402818,-0.6900276607325823,2.0,1.0,22.0
-0.15648109609648456,-0.21402078886572387,-0.16238222305233596,0.3459215125172375,1.0501352829788366,0.8632344795845857,1.002214908855992,0.2004346970218558,-0.01890191557750772,0.08931822476239151,-0.7387204574748117,-0.8577536900800942,-0.813006122276993,1.0,1.0,22.0
0.37268293634287303,-0.025302785752203127,0.17738035364321866,0.3459215125172375,-2.0168173760553074,-2.22323579765377,-2.2893827822654367,0.36341508146563745,0.12094112213388493,0.24144867119659408,0.24365076197338925,0.08317608383840518,0.17082157007829274,1.0,1.0,22.0
0.37268293634287303,0.257774218918078,0.262065920807576,7.460941037735607,-2.7384532958280468,2.730678680938885,-2.0127779342720395,-2.3665063579677046,1.419483615168245,0.04585238292404793,-1.6001844499140037,2.420798490917177,0.12470464699913876,1.0,1.0,22.0
-0.6856451285358421,-0.5914567950927654,-0.6562113135047343,2.12467639382183,-0.4704546908280078,1.9785136553934033,1.8043689680368444,-1.7757024643589965,-0.2386552605525533,-0.41053895637855975,-0.7084936507225594,0.12728216699083486,-0.45944304533681213,1.0,1.0,22.0
-0.050648289608613034,-0.4027387919792446,-0.23074286160669702,0.3459215125172375,1.6944530684902113,1.5375893300736385,1.721387513638825,-0.30887900436496185,-0.4983637591594254,-0.43227187729773153,-0.5120194068329191,-0.637223274317946,-0.5824215068812227,2.0,1.0,22.0
0.2668501298550015,-0.1196617873089635,0.07534954983073974,0.3459215125172375,1.4882713771265714,1.3041588049043509,1.4724431504447675,0.6893758503532007,0.46055992800441,0.6109083268225146,-0.6026998270896763,-0.7401374683402818,-0.6900276607325823,2.0,1.0,22.0
0.2668501298550015,-0.025302785752203127,0.1161618713557319,-1.432833368787355,-0.34159113372573285,-0.5373486714311387,-0.46379078550901415,-0.5940946771415796,-0.8379825650299504,-0.7799986120044802,2.0270323603562774,1.8180153545006386,1.9847538778583507,2.0,1.0,22.0
-0.050648289608613034,-0.1196617873089635,-0.00933601733361758,0.3459215125172375,1.4624986657061165,1.278222079885541,1.4447826656454277,0.6486307542422554,0.4206047743725835,0.567442484984171,-0.6178132304658025,-0.7548394960577584,-0.6900276607325823,2.0,1.0,22.0
0.05518451687925848,-0.21402078886572387,-0.07769665588797862,0.3459215125172375,1.4624986657061165,1.278222079885541,1.4447826656454277,0.6486307542422554,0.4206047743725835,0.567442484984171,-0.6178132304658025,-0.7401374683402818,-0.6900276607325823,2.0,1.0,22.0
0.37268293634287303,0.257774218918078,0.33042655936193704,0.3459215125172375,-2.0168173760553074,-2.22323579765377,-2.2893827822654367,0.322669985354692,0.12094112213388493,0.24144867119659408,0.22853735859726307,0.08317608383840518,0.17082157007829274,1.0,1.0,22.0
0.16101732336713,-0.1196617873089635,0.05800431318261816,-1.432833368787355,-0.34159113372573285,-0.5373486714311387,-0.49145127030835395,-0.5533495810306344,-0.798027411398124,-0.7365327701661367,2.0421457637324036,1.8327173822181149,2.000126185551402,2.0,1.0,22.0
0.47851574283074455,0.06905621580455724,0.2794111574556976,0.3459215125172375,-0.23850028804391293,-0.3557915962994708,-0.2978278767129758,0.7708660425750914,0.6203805425317158,0.784771694175889,-0.678266843970307,-0.798945579210188,-0.7515168915047876,3.0,1.0,22.0
0.05518451687925848,0.06905621580455724,0.09575571059323582,0.3459215125172375,-0.13540944236209296,-0.30391814626185143,-0.24250690711429626,0.9338464270188732,0.6803132729794555,0.8717033778525762,-0.663153440594181,-0.798945579210188,-0.7361445838117363,1.0,1.0,22.0
-0.4739795155600991,-0.6858157966495257,-0.6051959115984948,0.3459215125172375,-0.7797272278734677,-0.978272996750904,-0.9616795118971294,0.1800621489663831,-0.058857069209334194,0.04585238292404793,-0.6026998270896763,-0.7401374683402818,-0.6900276607325823,2.0,1.0,22.0
-0.050648289608613034,-0.21402078886572387,-0.1287120577942181,0.3459215125172375,1.4367259542856614,1.2522853548667314,1.4447826656454277,0.6690033022977281,0.4206047743725835,0.5891754059033427,-0.6178132304658025,-0.7548394960577584,-0.7053999684256336,2.0,1.0,22.0
-0.050648289608613034,-0.1196617873089635,-0.08789973626922594,0.3459215125172375,-0.7024090936121027,-0.874526096675665,-0.8510375726997705,0.6282582061867826,0.40062719755667026,0.5457095640649993,-0.6178132304658025,-0.7401374683402818,-0.6900276607325823,3.0,1.0,22.0
-0.050648289608613034,0.06905621580455724,-0.056270187087358696,0.3459215125172375,1.4367259542856614,1.278222079885541,1.4447826656454277,0.6690033022977281,0.4206047743725835,0.5891754059033427,-0.6178132304658025,-0.7548394960577584,-0.7053999684256336,2.0,1.0,22.0
-0.15648109609648456,-0.4027387919792446,-0.30318473231355714,0.3459215125172375,1.7202257799106664,1.5375893300736385,1.7490479984381648,-0.2681339082540164,-0.4983637591594254,-0.43227187729773153,-0.496906003456793,-0.6519253020354224,-0.5824215068812227,2.0,1.0,22.0
0.05518451687925848,-0.21402078886572387,-0.06035141923985704,0.3459215125172375,1.7975439141720315,1.589462780111258,1.8043689680368444,-0.02366333158834397,-0.25863283736846654,-0.17147682626767002,-0.5271328102090453,-0.666627329752899,-0.6131661222673255,3.0,1.0,22.0
0.2668501298550015,0.16341521736131762,0.17738035364321866,0.3459215125172375,2.1583618740584014,1.9785136553934033,2.1916157552276005,1.157944455629073,0.9000666179545012,1.110765507963466,-0.16441112918201728,-0.3137786645334617,-0.228858429941042,2.0,1.0,22.0
0.05518451687925848,-0.21402078886572387,-0.047087414744235244,0.3459215125172375,2.1583618740584014,1.9785136553934033,2.2192762400269403,1.1783170036845456,0.9200441947704143,1.1324984288826376,-0.1492977258058911,-0.2990766368159852,-0.21348612224799066,2.0,1.0,22.0
0.16101732336713,-0.1196617873089635,0.045760616725120225,-1.432833368787355,-0.34159113372573285,-0.5373486714311387,-0.46379078550901415,-0.5737221290861069,-0.7780498345822108,-0.7365327701661367,2.0421457637324036,1.8327173822181149,2.000126185551402,2.0,1.0,22.0
0.2668501298550015,-0.1196617873089635,0.07534954983073974,0.3459215125172375,2.1583618740584014,1.9785136553934033,2.2192762400269403,1.157944455629073,0.9000666179545012,1.089032587044294,-0.1492977258058911,-0.3137786645334617,-0.228858429941042,2.0,1.0,22.0
0.05518451687925848,-0.21402078886572387,-0.047087414744235244,0.3459215125172375,1.4367259542856614,1.2522853548667314,1.4447826656454277,0.6690033022977281,0.4206047743725835,0.567442484984171,-0.6178132304658025,-0.7548394960577584,-0.7053999684256336,2.0,1.0,22.0
0.05518451687925848,-0.025302785752203127,-0.00933601733361758,-1.432833368787355,-0.31581842230527785,-0.5114119464123291,-0.46379078550901415,-0.6144672251970523,-0.8579601418458637,-0.801731532923652,1.996805553604025,1.8033133267831618,1.9847538778583507,3.0,1.0,22.0
-0.26231390258435605,-0.1196617873089635,-0.23074286160669702,0.3459215125172375,-1.8621811075325776,-2.067615447540912,-2.095759388670059,-0.6348397732525249,-0.8379825650299504,-0.801731532923652,0.4401250058630295,0.2743024441656004,0.37066157008796013,2.0,1.0,22.0
-0.050648289608613034,-0.30837979042248426,-0.1899305400817056,0.3459215125172375,-1.3724995905439326,-1.574817672183527,-1.5702101774826036,0.03745431257807417,-0.1787225301048136,-0.08454514259098284,-0.3457719696955313,-0.49020299714318033,-0.4286984299507094,1.0,1.0,22.0
0.7960141622943591,0.6352102251451195,0.7722199398699706,0.3459215125172375,1.1532261286606567,0.9929181046786343,1.1405173328526905,0.465277821743001,0.24080658302936436,0.3718461967116249,-0.7084936507225594,-0.8283496346451411,-0.7822615068908902,2.0,1.0,22.0
0.16101732336713,-0.21402078886572387,-0.02668125398173917,0.3459215125172375,-0.7024090936121027,-0.874526096675665,-0.8510375726997705,0.6282582061867826,0.40062719755667026,0.5457095640649993,-0.6026998270896763,-0.7401374683402818,-0.6900276607325823,3.0,1.0,22.0
-0.7914779350237137,-0.5914567950927654,-0.8255824478334489,0.3459215125172375,-0.7797272278734677,-0.978272996750904,-0.9616795118971294,0.1800621489663831,-0.058857069209334194,0.06758530384321973,-0.6026998270896763,-0.7401374683402818,-0.6900276607325823,1.0,1.0,22.0
0.47851574283074455,0.06905621580455724,0.2794111574556976,-1.432833368787355,-0.29004571088482295,-0.48547522139351945,-0.43613030070967457,-0.858937801862725,-1.0777134868209093,-1.0625265839537137,1.921238536723394,1.7151011604783026,1.8771477240069914,3.0,1.0,22.0
-0.26231390258435605,-0.497097793536005,-0.41745923258353324,0.3459215125172375,-0.7797272278734677,-0.978272996750904,-0.9616795118971294,0.1800621489663831,-0.058857069209334194,0.06758530384321973,-0.6026998270896763,-0.7401374683402818,-0.6900276607325823,2.0,1.0,22.0
-0.15648109609648456,0.06905621580455724,-0.06035141923985704,0.3459215125172375,-0.16118215378254797,-0.3298548712806611,-0.27016739191363603,0.872728782852455,0.6603356961635423,0.784771694175889,-0.663153440594181,-0.798945579210188,-0.7515168915047876,3.0,1.0,22.0
0.7960141622943591,0.8239282282586402,0.82323534177621,0.3459215125172375,1.1532261286606567,1.0447915547162536,1.1405173328526905,0.465277821743001,0.2607841598452776,0.3718461967116249,-0.7084936507225594,-0.8283496346451411,-0.7822615068908902,3.0,1.0,22.0
0.37268293634287303,0.06905621580455724,0.24574099219757972,0.3459215125172375,2.1325891626379465,1.9525769303745937,2.163955270428261,1.1783170036845456,0.9200441947704143,1.1324984288826376,-0.16441112918201728,-0.3137786645334617,-0.24423073763409336,2.0,1.0,22.0
0.2668501298550015,-0.1196617873089635,0.07534954983073974,0.3459215125172375,1.7717712027515764,1.589462780111258,1.8043689680368444,-0.06440842769928935,-0.2786104141843798,-0.19320974718684178,-0.5271328102090453,-0.666627329752899,-0.6131661222673255,3.0,1.0,22.0
0.37268293634287303,0.06905621580455724,0.262065920807576,0.3459215125172375,-2.0425900874757623,-2.197299072634961,-2.2893827822654367,0.36341508146563745,0.16089627576571142,0.26318159211576586,0.24365076197338925,0.09787811155588175,0.18619387777134408,2.0,1.0,22.0
-0.3681467090722276,-0.6858157966495257,-0.5368352730441338,0.3459215125172375,-1.0374543420780176,-1.237640246939001,-1.2106238750911873,0.36341508146563745,0.1409186989497982,0.26318159211576586,-0.5120194068329191,-0.6519253020354224,-0.5977938145742742,2.0,1.0,22.0
0.9018469687822306,0.5408512235883591,0.7385497746118527,0.3459215125172375,1.1532261286606567,0.9929181046786343,1.1405173328526905,0.465277821743001,0.24080658302936436,0.3935791176307966,-0.7084936507225594,-0.8283496346451411,-0.7822615068908902,3.0,1.0,22.0
0.47851574283074455,0.06905621580455724,0.2794111574556976,0.3459215125172375,-2.0168173760553074,-2.22323579765377,-2.261722297466097,0.3430425334101647,0.12094112213388493,0.24144867119659408,0.22853735859726307,0.08317608383840518,0.17082157007829274,1.0,1.0,22.0
0.05518451687925848,0.06905621580455724,-0.00933601733361758,0.3459215125172375,2.1583618740584014,1.9785136553934033,2.2192762400269403,1.1171993595181275,0.9000666179545012,1.089032587044294,-0.1492977258058911,-0.3137786645334617,-0.228858429941042,2.0,1.0,22.0
-0.3681467090722276,-0.5914567950927654,-0.5031651077860159,0.3459215125172375,-0.7797272278734677,-0.978272996750904,-0.9616795118971294,0.1800621489663831,-0.058857069209334194,0.06758530384321973,-0.6026998270896763,-0.7401374683402818,-0.6900276607325823,2.0,1.0,22.0
-0.4739795155600991,0.06905621580455724,-0.28890041977981,0.3459215125172375,1.4882713771265714,1.3300955299231605,1.5001036352441073,0.7097483984086734,0.48053750482032315,0.6326412477416864,-0.6026998270896763,-0.7254354406228053,-0.6746553530395308,1.0,1.0,22.0
-0.3681467090722276,-0.6858157966495257,-0.5368352730441338,0.3459215125172375,-0.7797272278734677,-0.978272996750904,-0.9616795118971294,0.1596896009109104,-0.07883464602524744,0.04585238292404793,-0.6026998270896763,-0.7401374683402818,-0.6746553530395308,2.0,1.0,22.0
0.2668501298550015,-0.1196617873089635,0.07534954983073974,-1.432833368787355,-0.36736384514618786,-0.5114119464123291,-0.49145127030835395,-0.5533495810306344,-0.6981395273185578,-0.7147998492469649,2.0421457637324036,1.862121437653068,2.0154984932444533,1.0,1.0,22.0
0.16101732336713,-0.025302785752203127,0.07534954983073974,0.3459215125172375,-1.2951814562825676,-1.34138714701424,-1.4595682382852448,-0.0032907835328712474,0.48053750482032315,0.4805108013074838,-0.5120194068329191,-0.49020299714318033,-0.45944304533681213,2.0,1.0,22.0
0.16101732336713,0.06905621580455724,0.19778651440571474,-1.432833368787355,-0.31581842230527785,-0.5114119464123291,-0.46379078550901415,-0.6144672251970523,-0.8579601418458637,-0.801731532923652,2.0270323603562774,1.8033133267831618,1.9847538778583507,3.0,1.0,22.0
-0.26231390258435605,-0.497097793536005,-0.3837890673254154,0.3459215125172375,1.7202257799106664,1.589462780111258,1.7767084832375046,-0.22738881214307097,-0.31856556781620626,-0.280141430863529,-0.5271328102090453,-0.6225212466004695,-0.5977938145742742,2.0,1.0,22.0
-0.3681467090722276,-0.4027387919792446,-0.41745923258353324,2.12467639382183,-1.1920906106007476,1.3041588049043509,-0.9893399966964692,-3.1202906360201945,0.5804253888998893,0.1327840666007351,-3.202205207783377,0.5242369153627018,-0.6285384299603768,2.0,1.0,22.0
0.05518451687925848,-0.21402078886572387,-0.07769665588797862,0.3459215125172375,-0.7024090936121027,-0.874526096675665,-0.8510375726997705,0.6690033022977281,0.4206047743725835,0.5891754059033427,-0.6026998270896763,-0.7401374683402818,-0.6746553530395308,2.0,1.0,22.0
0.584348549318616,0.16341521736131762,0.3814419612681765,0.3459215125172375,1.2047715515015667,1.0447915547162536,1.1958383024513701,0.5467680139648917,0.3207168902930173,0.458777880388312,-0.6933802473464332,-0.8136476069276647,-0.7668891991978388,2.0,1.0,22.0
0.16101732336713,-0.21402078886572387,-0.02668125398173917,0.3459215125172375,-0.7024090936121027,-0.874526096675665,-0.8510375726997705,0.6282582061867826,0.40062719755667026,0.5457095640649993,-0.6026998270896763,-0.7401374683402818,-0.6746553530395308,3.0,1.0,22.0
-0.050648289608613034,-0.4027387919792446,-0.23074286160669702,0.3459215125172375,1.0501352829788366,0.8632344795845857,1.002214908855992,0.2208072450773285,-0.01890191557750772,0.11105114568156331,-0.7387204574748117,-0.8724557177975708,-0.813006122276993,2.0,1.0,22.0
0.05518451687925848,-0.21402078886572387,-0.07769665588797862,0.3459215125172375,-1.2951814562825676,-1.4710707721082887,-1.4872287230845846,0.5467680139648917,0.30073931347710403,0.43704495946914024,-0.3911121798239099,-0.5343090802956101,-0.45944304533681213,2.0,1.0,22.0
0.05518451687925848,0.9182872298154006,0.44980259982253756,0.3459215125172375,-2.3260899131007675,1.4338424299983994,0.8639124848592932,-1.8571926565808874,0.7802011570590217,-1.1929241094687444,-0.6480400372180548,0.18609027786074106,-0.35183689148545283,1.0,1.0,22.0
-0.4739795155600991,-0.5914567950927654,-0.5807085186834997,0.3459215125172375,-1.0374543420780176,-1.237640246939001,-1.2106238750911873,0.36341508146563745,0.1409186989497982,0.26318159211576586,-0.5120194068329191,-0.6519253020354224,-0.5977938145742742,2.0,1.0,22.0
0.16101732336713,-0.1196617873089635,0.0029076791238803546,0.3459215125172375,2.1583618740584014,1.9785136553934033,2.1916157552276005,1.1986895517400185,0.9400217715863275,1.1542313498018093,-0.1492977258058911,-0.2843746090985086,-0.21348612224799066,2.0,1.0,22.0
0.2668501298550015,0.06905621580455724,0.17738035364321866,0.3459215125172375,1.7717712027515764,1.589462780111258,1.8043689680368444,-0.06440842769928935,-0.25863283736846654,-0.19320974718684178,-0.5271328102090453,-0.666627329752899,-0.5977938145742742,3.0,1.0,22.0
0.05518451687925848,0.06905621580455724,0.04167938457262188,2.12467639382183,1.2563169743424767,1.1485384547914925,1.2234987872507097,2.095081666180817,1.8589903051183365,2.1539457120837118,0.34944458560627245,0.2448983887306473,0.33991695470185745,5.0,0.0,0.0
-0.5798123220479706,-0.7801747982062861,-0.6898814787628521,2.12467639382183,1.0501352829788366,0.8372977545657759,1.002214908855992,1.830238541459672,1.559326652879638,1.827951898296135,1.649197275953123,1.4504646615637247,1.6004461855320673,5.0,0.0,0.0
-0.7914779350237137,-0.7801747982062861,-0.7582421173172131,-1.432833368787355,0.04499953758109201,-0.14829779614899316,-0.07654399831825784,0.7708660425750914,0.5204926584521496,0.6761070895800299,-0.6933802473464332,-0.8283496346451411,-0.7668891991978388,5.0,0.0,0.0
-0.7914779350237137,-0.7801747982062861,-0.8429276844815705,0.3459215125172375,0.9470444372970168,1.667272955167687,1.3894616960467483,1.3412973881283272,2.0188109196456425,1.8931506610536504,-0.2702049528149006,0.450726776775319,0.06321541622693334,0.0,0.0,0.0
-0.3681467090722276,0.16341521736131762,-0.172585303433584,-1.432833368787355,0.04499953758109201,-0.14829779614899316,-0.04888351351891815,0.9134738789634005,0.6603356961635423,0.8499704569334043,-0.663153440594181,-0.798945579210188,-0.7361445838117363,5.0,0.0,0.0
-0.26231390258435605,0.06905621580455724,-0.04402649062986076,2.12467639382183,1.0243625715583817,0.8632344795845857,1.0298753936553315,1.7894934453487266,1.5393490760637247,1.8062189773769632,1.6643106793292493,1.509272772433631,1.6158184932251187,5.0,0.0,0.0
-1.1089763544873281,-0.497097793536005,-0.7072267154109737,2.12467639382183,1.1789988400811116,0.9929181046786343,1.1405173328526905,2.2173169545136537,1.9389006123819894,2.2191444748412272,0.8330734936423099,0.6418531371025142,0.770341570107295,5.0,0.0,0.0
-0.26231390258435605,-0.4027387919792446,-0.3327736654191759,2.12467639382183,0.8954990144561068,0.9669813796598244,0.9745544240566523,1.830238541459672,2.0188109196456425,2.175678633002884,0.8330734936423099,1.4357626338462481,1.0624154162752704,5.0,0.0,0.0
-0.15648109609648456,-0.30837979042248426,-0.23074286160669702,2.12467639382183,1.1532261286606567,0.9669813796598244,1.1405173328526905,2.1969444064581807,1.9588781891979026,2.2191444748412272,0.7877332835139315,0.6712571925374673,0.7857138778003463,5.0,0.0,0.0
-0.15648109609648456,-0.4027387919792446,-0.2919613438941845,2.12467639382183,1.0243625715583817,0.8372977545657759,0.9745544240566523,1.830238541459672,1.5393490760637247,1.8062189773769632,1.6643106793292493,1.4651666892812012,1.63119080091817,5.0,0.0,0.0
-0.5798123220479706,-0.5914567950927654,-0.6051959115984948,-1.432833368787355,0.6119991888311018,0.3963734292460109,0.5319866672672163,0.5467680139648917,0.30073931347710403,0.458777880388312,-0.7387204574748117,-0.8871577455150473,-0.8283784299700443,5.0,0.0,0.0
-0.8973107415115852,-0.6858157966495257,-0.9112883230359315,-1.432833368787355,0.3800447860470069,0.18887962909553316,0.2830423040731587,1.2598071959064363,0.9999545020340672,1.2194301125593248,-0.5573596169612978,-0.7107334129053287,-0.6439107376534282,0.0,0.0,0.0
-0.3681467090722276,-0.497097793536005,-0.41745923258353324,2.12467639382183,1.1274534172402015,0.9410446546410149,1.0851963632540111,2.2173169545136537,1.9389006123819894,2.2408773957603993,0.8179600902661838,0.6418531371025142,0.770341570107295,5.0,0.0,0.0
-0.5798123220479706,-0.7801747982062861,-0.6725362421147305,0.3459215125172375,1.4367259542856614,1.278222079885541,1.4447826656454277,1.1986895517400185,0.9599993484022408,1.1542313498018093,-0.4515657933284146,-0.5931171911655163,-0.5363045838020689,0.0,0.0,0.0
-0.8973107415115852,-1.0632518028765672,-0.9959738902002889,-1.432833368787355,0.3542720746265519,0.21481635411434288,0.2830423040731587,1.280179743961909,1.1397975397454598,1.2628959543976683,-0.5573596169612978,-0.6519253020354224,-0.6131661222673255,0.0,0.0,0.0
-0.4739795155600991,1.8618772453830044,1.0191344850961697,-1.432833368787355,0.3284993632060969,0.16294290407672343,0.25538181927381903,0.3430425334101647,0.12094112213388493,0.24144867119659408,-0.7689472642270642,-0.8871577455150473,-0.8437507376630956,0.0,0.0,0.0
-0.4739795155600991,-0.4027387919792446,-0.4684746344897727,-1.432833368787355,0.6119991888311018,0.4223101542648206,0.5596471520665561,0.5671405620203644,0.3207168902930173,0.458777880388312,-0.7387204574748117,-0.8724557177975708,-0.8283784299700443,5.0,0.0,0.0
0.584348549318616,0.6352102251451195,0.6579454395999937,2.12467639382183,1.0243625715583817,0.8372977545657759,1.002214908855992,1.8098659934041994,1.5393490760637247,1.8062189773769632,1.6643106793292493,1.4651666892812012,1.63119080091817,5.0,0.0,0.0
-1.3206419674630712,-0.4027387919792446,-1.098004694012768,-1.432833368787355,0.5862264774106468,0.37043670422720115,0.5043261824678766,0.7097483984086734,0.46055992800441,0.6326412477416864,-0.7236070540986855,-0.8577536900800942,-0.7976338145839416,5.0,0.0,0.0
0.16101732336713,-0.025302785752203127,0.07534954983073974,0.3459215125172375,0.7150900345129219,1.4857158800360188,1.4724431504447675,-2.3665063579677046,-0.15874495328890037,-0.45400479821690337,-0.6480400372180548,1.509272772433631,-0.2903476607132474,0.0,0.0,0.0
0.16101732336713,-0.025302785752203127,0.014131067543252978,0.3459215125172375,1.6171349342288466,1.4338424299983994,1.6107455744414663,0.017081764522601475,-0.21867768373664007,-0.1280109844293264,-0.5875864237135501,-0.7254354406228053,-0.6592830453464795,5.0,0.0,0.0
-0.26231390258435605,-0.30837979042248426,-0.3154284287710543,2.12467639382183,1.0501352829788366,0.9151079296222052,1.0298753936553315,1.7894934453487266,1.5393490760637247,1.7844860564577913,1.6643106793292493,1.4945707447161543,1.63119080091817,5.0,0.0,0.0
-0.3681467090722276,0.16341521736131762,-0.1287120577942181,2.12467639382183,1.0243625715583817,0.8372977545657759,1.002214908855992,1.8098659934041994,1.5393490760637247,1.8062189773769632,1.6643106793292493,1.4651666892812012,1.6158184932251187,5.0,0.0,0.0
-0.8973107415115852,-1.0632518028765672,-1.0133191268484105,-1.432833368787355,0.3284993632060969,0.13700617905791374,0.25538181927381903,1.2190620997954908,1.0199320788499806,1.1976971916401529,-0.5724730203374239,-0.6960313851878521,-0.6439107376534282,0.0,0.0,0.0
-0.6856451285358421,0.4464922220315987,-0.46031217018477455,0.3459215125172375,-2.3518626245212224,0.24075307913315258,-0.5191117551076937,-2.1220357813020323,1.7591024210387702,-0.1280109844293264,-1.4339370127766156,1.5386768278685843,0.30917233931575483,0.0,0.0,0.0
0.16101732336713,1.3900822375992024,0.6365189707993738,-1.432833368787355,-0.7797272278734677,0.29262652917077203,0.3383632736718382,0.07819940868901958,0.2008514293975379,0.2849145130349377,-0.753833860850938,-0.5784151634480398,-0.8283784299700443,0.0,0.0,0.0
-0.4739795155600991,-0.5914567950927654,-0.5368352730441338,2.12467639382183,1.1016807058197466,0.9151079296222052,1.0851963632540111,2.2173169545136537,1.9389006123819894,2.2408773957603993,0.8784137037706884,0.7006612479724204,0.8318308008795003,5.0,0.0,0.0
-0.4739795155600991,-0.6858157966495257,-0.5878506749503732,-1.432833368787355,0.04499953758109201,-0.14829779614899316,-0.04888351351891815,0.8116111386860368,0.720268426611282,0.8282375360142326,-0.7084936507225594,-0.7842435514927115,-0.7361445838117363,5.0,0.0,0.0
-0.4739795155600991,-0.4027387919792446,-0.43480446923165483,2.12467639382183,1.1789988400811116,0.9669813796598244,1.1405173328526905,2.2173169545136537,1.9389006123819894,2.2191444748412272,0.8633003003945622,0.6712571925374673,0.8010861854933976,5.0,0.0,0.0
-0.3681467090722276,0.4464922220315987,-0.006275093219243096,-1.432833368787355,0.5862264774106468,0.37043670422720115,0.5043261824678766,0.6078856581313099,0.36067204392484375,0.5022437222266556,-0.7387204574748117,-0.8724557177975708,-0.813006122276993,5.0,0.0,0.0
0.584348549318616,0.4464922220315987,0.5855035688931344,-1.432833368787355,0.6119991888311018,0.4482468792836303,0.5596471520665561,-0.08478097575476208,-0.2386552605525533,-0.19320974718684178,-0.7991740709793165,-0.8430516623626176,-0.813006122276993,5.0,0.0,0.0
-0.4739795155600991,-0.025302785752203127,-0.21033670084420092,2.12467639382183,1.0243625715583817,0.8372977545657759,1.002214908855992,1.7894934453487266,1.559326652879638,1.8062189773769632,1.6340838725769968,1.479868716998678,1.6158184932251187,5.0,0.0,0.0
-0.3681467090722276,-0.30837979042248426,-0.3327736654191759,-1.432833368787355,0.5862264774106468,0.3963734292460109,0.5319866672672163,-0.06440842769928935,-0.298587991000293,-0.19320974718684178,-0.7387204574748117,-0.8724557177975708,-0.813006122276993,5.0,0.0,0.0
0.16101732336713,0.16341521736131762,0.2794111574556976,-1.432833368787355,0.3284993632060969,0.13700617905791374,0.25538181927381903,0.4245327256320555,0.16089627576571142,0.3066474339541094,-0.753833860850938,-0.8871577455150473,-0.8437507376630956,0.0,0.0,0.0
-0.050648289608613034,-0.30837979042248426,-0.15421975874733782,2.12467639382183,1.1274534172402015,0.9669813796598244,1.112856848053351,2.2173169545136537,1.9389006123819894,2.2408773957603993,0.8179600902661838,0.7006612479724204,0.770341570107295,5.0,0.0,0.0
-0.26231390258435605,0.06905621580455724,-0.02668125398173917,-1.432833368787355,0.5346810545697368,0.3444999792083914,0.4766656976685369,0.5060229178539464,0.2607841598452776,0.41531203854996845,-0.753833860850938,-0.8871577455150473,-0.8283784299700443,5.0,0.0,0.0
0.7960141622943591,1.012646231372161,0.9762815474949285,-1.432833368787355,0.5862264774106468,0.3963734292460109,0.5043261824678766,-0.0032907835328712474,-0.2386552605525533,-0.1497439053484982,-0.753833860850938,-0.8871577455150473,-0.8283784299700443,5.0,0.0,0.0
0.05518451687925848,0.16341521736131762,0.006988911276378699,-1.432833368787355,0.5862264774106468,0.3963734292460109,0.5319866672672163,-0.06440842769928935,-0.298587991000293,-0.2149426681060136,-0.7387204574748117,-0.8724557177975708,-0.813006122276993,5.0,0.0,0.0
-0.5798123220479706,-0.7801747982062861,-0.7072267154109737,2.12467639382183,1.1274534172402015,0.9151079296222052,1.0851963632540111,2.2173169545136537,1.9389006123819894,2.2408773957603993,0.8935271071468146,0.715363275689897,0.8472031085725517,5.0,0.0,0.0
2.066007840148817,1.8618772453830044,2.136371786842814,-1.432833368787355,0.6377719002515567,0.5001203293212497,0.5873076368658959,0.7301209464641462,0.720268426611282,0.8065046150950608,-0.7387204574748117,-0.7548394960577584,-0.7668891991978388,0.0,0.0,0.0
-0.4739795155600991,-0.6858157966495257,-0.5705054383022516,-1.432833368787355,0.3284993632060969,0.13700617905791374,0.25538181927381903,1.3209248400728544,1.059887232481807,1.2628959543976683,-0.5422462135851716,-0.6813293574703756,-0.6131661222673255,0.0,0.0,0.0
-0.15648109609648456,-0.21402078886572387,-0.21339762495857542,2.12467639382183,0.9985898601379267,0.7854243045281566,0.9468939392573125,1.7894934453487266,1.5193714992478113,1.7844860564577913,1.6945374860815017,1.4945707447161543,1.6619354163042728,5.0,0.0,0.0
0.37268293634287303,0.16341521736131762,0.29675639410381915,-1.432833368787355,0.04499953758109201,-0.14829779614899316,-0.04888351351891815,0.7912385906305641,0.5404702352680629,0.7195729314183735,-0.678266843970307,-0.8283496346451411,-0.7668891991978388,5.0,0.0,0.0
-0.6856451285358421,2.7111082593938476,1.4425623209179579,-1.432833368787355,0.3284993632060969,0.3444999792083914,0.25538181927381903,0.44490527368752825,0.640358119347629,0.5022437222266556,-0.7387204574748117,-0.798945579210188,-0.813006122276993,0.0,0.0,0.0
-1.1089763544873281,0.06905621580455724,-0.6215208402084911,0.3459215125172375,1.2820896857629318,1.0707282797350635,1.2511592720500495,2.1154542142362898,1.81903515148651,2.1104798702453684,0.34944458560627245,0.1713882501432645,0.2784277239296521,5.0,0.0,0.0
-0.6856451285358421,-0.497097793536005,-0.5776475945691252,2.12467639382183,0.8181808801947418,0.9669813796598244,1.0851963632540111,2.1969444064581807,1.9988333428297294,2.2408773957603993,0.8179600902661838,0.8329794974297093,0.7857138778003463,5.0,0.0,0.0
0.47851574283074455,0.16341521736131762,0.31308132271381545,2.12467639382183,1.1532261286606567,0.9410446546410149,1.112856848053351,2.2173169545136537,1.9389006123819894,2.2408773957603993,0.7877332835139315,0.6124490816675611,0.7395969547211922,5.0,0.0,0.0
-1.1089763544873281,-1.251969805990088,-1.2173807344733683,-1.432833368787355,0.4058174974674619,0.21481635411434288,0.31070278887249847,0.9949640711852912,0.7402460034271952,0.9151692196909196,-0.663153440594181,-0.798945579210188,-0.7361445838117363,0.0,0.0,0.0
-0.5798123220479706,0.06905621580455724,-0.02668125398173917,-1.432833368787355,0.3800447860470069,0.18887962909553316,0.2830423040731587,0.9745915231298184,0.7402460034271952,0.9151692196909196,-0.663153440594181,-0.7842435514927115,-0.7361445838117363,0.0,0.0,0.0
0.47851574283074455,0.06905621580455724,0.2794111574556976,0.3459215125172375,1.6429076456493013,1.4597791550172092,1.6384060592408058,-0.0032907835328712474,-0.21867768373664007,-0.1280109844293264,-0.5875864237135501,-0.7107334129053287,-0.6592830453464795,5.0,0.0,0.0
-0.050648289608613034,0.16341521736131762,-0.02668125398173917,2.12467639382183,1.0501352829788366,0.8632344795845857,1.0298753936553315,1.8098659934041994,1.5393490760637247,1.8062189773769632,1.6643106793292493,1.4651666892812012,1.6158184932251187,5.0,0.0,0.0
-0.3681467090722276,-0.30837979042248426,-0.28890041977981,0.3459215125172375,1.2820896857629318,1.0707282797350635,1.2511592720500495,2.1154542142362898,1.81903515148651,2.1104798702453684,0.3343311822301463,0.15668622242578792,0.2630554162366008,5.0,0.0,0.0
-1.1089763544873281,-1.251969805990088,-1.1663653325671288,0.3459215125172375,1.4367259542856614,1.278222079885541,1.4447826656454277,1.1986895517400185,0.9400217715863275,1.1542313498018093,-0.4666791967045408,-0.5931171911655163,-0.5363045838020689,0.0,0.0,0.0
-0.4739795155600991,-0.497097793536005,-0.47561679075664626,2.12467639382183,1.0759079943992915,0.9151079296222052,1.0575358784546713,2.2173169545136537,1.9588781891979026,2.2408773957603993,0.8028466868900577,0.7594693588423267,0.8318308008795003,5.0,0.0,0.0
-0.5798123220479706,-0.21402078886572387,-0.2991035001610581,2.12467639382183,1.0501352829788366,0.8372977545657759,1.002214908855992,1.830238541459672,1.559326652879638,1.827951898296135,1.6340838725769968,1.4504646615637247,1.6004461855320673,5.0,0.0,0.0
0.584348549318616,0.4464922220315987,0.4834727650806554,2.12467639382183,1.2563169743424767,1.0707282797350635,1.2234987872507097,2.135826762291763,1.8589903051183365,2.1539457120837118,0.4098981991107772,0.2448983887306473,0.3552892623949088,5.0,0.0,0.0
-1.0031435479994566,-0.9688928013198068,-0.9857708098190409,2.12467639382183,1.1532261286606567,0.9669813796598244,1.112856848053351,2.2173169545136537,1.9389006123819894,2.2408773957603993,0.8330734936423099,0.6565551648199908,0.770341570107295,5.0,0.0,0.0
-0.8973107415115852,-1.0632518028765672,-0.962303724942171,0.3459215125172375,-0.36736384514618786,0.7854243045281566,0.2830423040731587,0.6893758503532007,2.578183070491213,1.0672996661251222,-0.7689472642270642,-0.372586775403368,-0.6746553530395308,0.0,0.0,0.0
-1.0031435479994566,-0.21402078886572387,-0.5368352730441338,-1.432833368787355,0.5604537659901919,0.3444999792083914,0.4766656976685369,0.526395465909419,0.28076173666119086,0.41531203854996845,-0.7387204574748117,-0.8871577455150473,-0.8283784299700443,5.0,0.0,0.0
0.37268293634287303,0.8239282282586402,0.4834727650806554,-1.432833368787355,0.5862264774106468,0.3963734292460109,0.5043261824678766,-0.0032907835328712474,-0.2386552605525533,-0.1497439053484982,-0.7387204574748117,-0.8724557177975708,-0.8283784299700443,5.0,0.0,0.0
-1.4264747739509427,-1.1576108044333275,-1.2510508997314862,2.12467639382183,1.0243625715583817,1.018854829697444,0.9745544240566523,2.1969444064581807,1.9788557660138157,2.2191444748412272,0.9388673172751931,0.877085580582139,1.0162984931961163,5.0,0.0,0.0
-0.15648109609648456,-0.30837979042248426,-0.2644130268648149,-1.432833368787355,0.07077224900154695,-0.14829779614899316,-0.04888351351891815,0.9338464270188732,0.6603356961635423,0.8499704569334043,-0.6480400372180548,-0.798945579210188,-0.7361445838117363,5.0,0.0,0.0
-0.8973107415115852,-0.9688928013198068,-0.9276132516459279,-1.432833368787355,0.3542720746265519,0.16294290407672343,0.2830423040731587,1.280179743961909,0.9999545020340672,1.2194301125593248,-0.5573596169612978,-0.7107334129053287,-0.6439107376534282,0.0,0.0,0.0
-0.7914779350237137,-0.7801747982062861,-0.8602729211296921,0.3459215125172375,1.1274534172402015,0.9410446546410149,1.0851963632540111,2.033964022014399,1.7990575746705968,2.045281107487853,0.13785693834050605,-0.005036082466454143,0.0785877239199847,5.0,0.0,0.0
-0.4739795155600991,-0.6858157966495257,-0.5705054383022516,0.3459215125172375,1.6429076456493013,1.4338424299983994,1.6384060592408058,0.017081764522601475,-0.21867768373664007,-0.10627806351015462,-0.5875864237135501,-0.7254354406228053,-0.6592830453464795,5.0,0.0,0.0
-0.15648109609648456,-0.21402078886572387,-0.2644130268648149,2.12467639382183,1.1016807058197466,0.9151079296222052,1.0851963632540111,2.2173169545136537,1.9389006123819894,2.2408773957603993,0.8784137037706884,0.7006612479724204,0.816458493186449,5.0,0.0,0.0
-0.4739795155600991,-0.21402078886572387,-0.3664438306772938,0.3459215125172375,0.7150900345129219,0.6816774044529177,0.670289091263915,1.3412973881283272,1.9788557660138157,2.1974115539220556,-0.5120194068329191,0.1713882501432645,0.2476831085435494,0.0,0.0,0.0
-1.2148091609751996,-1.251969805990088,-1.2683961363796077,-1.432833368787355,0.4058174974674619,0.21481635411434288,0.3383632736718382,0.9949640711852912,0.7402460034271952,0.9369021406100914,-0.663153440594181,-0.798945579210188,-0.7361445838117363,0.0,0.0,0.0
-0.3681467090722276,-0.6858157966495257,-0.5368352730441338,3.9034312751264224,0.5346810545697368,1.5116526050548287,1.2788197568493893,1.076454263407182,2.158653957357035,1.6540885309427604,0.5761456362481651,1.8474194099355918,1.63119080091817,0.0,0.0,0.0
-1.3206419674630712,-0.5914567950927654,-0.9959738902002889,2.12467639382183,0.4315902088879169,1.822893305280545,1.112856848053351,0.9949640711852912,1.9988333428297294,1.9366165028919937,0.16808374509275842,2.038545770262787,0.8318308008795003,0.0,0.0,0.0
-0.4739795155600991,-0.7801747982062861,-0.6388660768566127,-1.432833368787355,0.3284993632060969,0.13700617905791374,0.25538181927381903,1.3209248400728544,1.059887232481807,1.2628959543976683,-0.5422462135851716,-0.6813293574703756,-0.6131661222673255,0.0,0.0,0.0
-0.6856451285358421,-0.6858157966495257,-0.7072267154109737,2.12467639382183,1.0759079943992915,0.8891712046033954,1.0575358784546713,2.2376895025691264,1.9389006123819894,2.2408773957603993,0.8935271071468146,0.715363275689897,0.8318308008795003,5.0,0.0,0.0
-0.4739795155600991,-0.21402078886572387,-0.2991035001610581,0.3459215125172375,1.6171349342288466,1.4338424299983994,1.6384060592408058,0.017081764522601475,-0.21867768373664007,-0.10627806351015462,-0.5875864237135501,-0.7254354406228053,-0.6592830453464795,5.0,0.0,0.0
0.47851574283074455,0.35213322047483836,0.46918845254690833,2.12467639382183,1.1532261286606567,0.9410446546410149,1.112856848053351,2.2173169545136537,1.9389006123819894,2.2408773957603993,0.8028466868900577,0.6418531371025142,0.7549692624142436,5.0,0.0,0.0
-0.5798123220479706,-0.8745337997630465,-0.7408968806690917,-1.432833368787355,0.3284993632060969,0.13700617905791374,0.25538181927381903,1.3005522920173818,1.0399096556658938,1.2411630334784964,-0.5422462135851716,-0.6813293574703756,-0.6285384299603768,0.0,0.0,0.0
-0.6856451285358421,-0.5914567950927654,-0.7072267154109737,2.12467639382183,0.9985898601379267,0.7854243045281566,0.9468939392573125,1.8098659934041994,1.5193714992478113,1.7844860564577913,1.6945374860815017,1.479868716998678,1.6465631086112213,5.0,0.0,0.0
-0.8973107415115852,-0.497097793536005,-0.7582421173172131,-1.432833368787355,0.5862264774106468,0.37043670422720115,0.5043261824678766,0.7504934945196187,0.5005150816362364,0.6543741686608581,-0.7084936507225594,-0.8577536900800942,-0.7976338145839416,5.0,0.0,0.0
-0.4739795155600991,-0.6858157966495257,-0.5878506749503732,0.3459215125172375,0.5862264774106468,0.9669813796598244,1.0851963632540111,1.9932189259034536,2.1786315341729487,2.001815265649509,0.06228992145987522,0.5095348876452251,0.017098493147779375,0.0,0.0,0.0
-0.8973107415115852,-0.8745337997630465,-0.89394308638781,0.3459215125172375,-0.6250909593507378,0.8891712046033954,0.5873076368658959,0.40416017757658285,1.9389006123819894,1.2411630334784964,-0.9956483148689566,1.053509913191858,0.0785877239199847,0.0,0.0,0.0
-0.4739795155600991,-0.6858157966495257,-0.6215208402084911,0.3459215125172375,1.4624986657061165,1.278222079885541,1.4447826656454277,1.1783170036845456,0.9400217715863275,1.1324984288826376,-0.4666791967045408,-0.5931171911655163,-0.5363045838020689,0.0,0.0,0.0
-0.26231390258435605,-0.4027387919792446,-0.2991035001610581,2.12467639382183,1.1274534172402015,0.9151079296222052,1.0851963632540111,2.2376895025691264,1.9389006123819894,2.2408773957603993,0.8330734936423099,0.6565551648199908,0.7857138778003463,5.0,0.0,0.0
0.37268293634287303,0.5408512235883591,0.6059097296556304,-1.432833368787355,0.5862264774106468,0.4223101542648206,0.5319866672672163,-0.06440842769928935,-0.2386552605525533,-0.17147682626767002,-0.7689472642270642,-0.8577536900800942,-0.8283784299700443,5.0,0.0,0.0
-0.6856451285358421,-0.7801747982062861,-0.7408968806690917,2.12467639382183,1.1274534172402015,0.9410446546410149,1.0851963632540111,2.1969444064581807,1.9588781891979026,2.2408773957603993,0.8028466868900577,0.6565551648199908,0.770341570107295,5.0,0.0,0.0
-0.26231390258435605,-0.4027387919792446,-0.2644130268648149,2.12467639382183,1.1016807058197466,0.9151079296222052,1.0851963632540111,2.2173169545136537,1.9389006123819894,2.2408773957603993,0.8784137037706884,0.7006612479724204,0.816458493186449,5.0,0.0,0.0
1.9601750336609458,2.522390256280327,2.0822954608222,0.3459215125172375,-0.18695486520300292,2.4194379807131683,0.7809310304612741,0.5060229178539464,2.398384879147994,1.1542313498018093,-0.7387204574748117,1.2299342458015763,-0.27497535302019604,0.0,0.0,0.0
-0.8973107415115852,-0.497097793536005,-0.47561679075664626,-1.432833368787355,0.3284993632060969,0.13700617905791374,0.2277213344744793,1.3005522920173818,1.0199320788499806,1.2411630334784964,-0.5573596169612978,-0.6960313851878521,-0.6285384299603768,0.0,0.0,0.0
-0.6856451285358421,-0.497097793536005,-0.5878506749503732,0.3459215125172375,1.1274534172402015,2.108197280487452,1.3341407264480687,-1.2663887629721788,1.9788557660138157,1.1976971916401529,-0.9351947013644522,0.5242369153627018,-0.16736919916883677,5.0,0.0,0.0
-0.3681467090722276,-0.497097793536005,-0.4552106299941509,-1.432833368787355,0.5346810545697368,0.3444999792083914,0.4766656976685369,0.5060229178539464,0.2607841598452776,0.3935791176307966,-0.7387204574748117,-0.8871577455150473,-0.8283784299700443,5.0,0.0,0.0
-0.3681467090722276,-0.21402078886572387,-0.2644130268648149,0.3459215125172375,1.6171349342288466,1.4338424299983994,1.6107455744414663,-0.0032907835328712474,-0.21867768373664007,-0.10627806351015462,-0.5875864237135501,-0.7254354406228053,-0.6592830453464795,5.0,0.0,0.0
-0.26231390258435605,-0.4027387919792446,-0.2991035001610581,0.3459215125172375,1.2820896857629318,1.0707282797350635,1.2511592720500495,2.1154542142362898,1.8390127283024233,2.1104798702453684,0.34944458560627245,0.1713882501432645,0.2784277239296521,5.0,0.0,0.0
-1.0031435479994566,-0.7801747982062861,-0.8837400060065619,2.12467639382183,-2.6353624501462267,2.2378809055815005,0.2830423040731587,-1.959055396858251,2.418362455963907,1.2411630334784964,-0.9200812979883259,1.2152322180840998,-0.4286984299507094,0.0,0.0,0.0
-0.8973107415115852,-0.5914567950927654,-0.8633338452440666,2.12467639382183,1.1274534172402015,0.9410446546410149,1.0851963632540111,2.2376895025691264,1.9389006123819894,2.2408773957603993,0.8330734936423099,0.6565551648199908,0.770341570107295,5.0,0.0,0.0
-0.6856451285358421,-0.8745337997630465,-0.8286433719478234,-1.432833368787355,0.5346810545697368,0.3444999792083914,0.4766656976685369,0.40416017757658285,0.2607841598452776,0.35011327579245305,-0.753833860850938,-0.8871577455150473,-0.8283784299700443,5.0,0.0,0.0
-0.3681467090722276,-0.21402078886572387,-0.3501189020672975,0.3459215125172375,1.2820896857629318,1.096665004753873,1.2511592720500495,2.1154542142362898,1.81903515148651,2.1104798702453684,0.3343311822301463,0.1713882501432645,0.2784277239296521,5.0,0.0,0.0
-0.3681467090722276,-0.21402078886572387,-0.3837890673254154,0.3459215125172375,1.6171349342288466,1.4338424299983994,1.6107455744414663,-0.0032907835328712474,-0.21867768373664007,-0.1280109844293264,-0.5875864237135501,-0.7254354406228053,-0.6592830453464795,5.0,0.0,0.0
0.16101732336713,-0.025302785752203127,0.014131067543252978,2.12467639382183,1.1532261286606567,0.9410446546410149,1.112856848053351,2.2173169545136537,1.9389006123819894,2.2408773957603993,0.7877332835139315,0.6124490816675611,0.7395969547211922,5.0,0.0,0.0
-0.6856451285358421,-0.497097793536005,-0.5541805096922553,2.12467639382183,1.1532261286606567,0.9669813796598244,1.1405173328526905,2.2173169545136537,1.9389006123819894,2.2191444748412272,0.8633003003945622,0.6712571925374673,0.8010861854933976,5.0,0.0,0.0
-0.5798123220479706,-0.7801747982062861,-0.72355164402097,-1.432833368787355,0.3284993632060969,0.13700617905791374,0.25538181927381903,1.3005522920173818,1.0399096556658938,1.2628959543976683,-0.5422462135851716,-0.6813293574703756,-0.6285384299603768,0.0,0.0,0.0
-0.26231390258435605,-0.4027387919792446,-0.353179826181672,2.12467639382183,1.0501352829788366,0.8372977545657759,1.002214908855992,1.830238541459672,1.559326652879638,1.827951898296135,1.649197275953123,1.4504646615637247,1.6004461855320673,5.0,0.0,0.0
0.47851574283074455,0.16341521736131762,0.32022347898068976,-1.432833368787355,0.5862264774106468,0.3963734292460109,0.5319866672672163,-0.02366333158834397,-0.25863283736846654,-0.17147682626767002,-0.7387204574748117,-0.8724557177975708,-0.8283784299700443,5.0,0.0,0.0
-0.7914779350237137,-0.7801747982062861,-0.7072267154109737,-1.432833368787355,0.3800447860470069,0.16294290407672343,0.2830423040731587,0.1596896009109104,-0.09881222284116067,0.024119462004876132,-0.753833860850938,-0.8871577455150473,-0.8437507376630956,2.0,1.0,0.0
-1.0031435479994566,-0.7801747982062861,-0.9112883230359315,-1.432833368787355,-0.13540944236209296,-0.3298548712806611,-0.24250690711429626,1.0153366192407638,0.820156310690848,1.002100903367607,-0.6026998270896763,-0.7254354406228053,-0.6746553530395308,2.0,1.0,0.0
-0.4739795155600991,-0.5914567950927654,-0.5031651077860159,-1.432833368787355,-0.10963673094163794,-0.30391814626185143,-0.21484642231495657,1.0968268114626547,0.8401338875067613,1.0455667452059505,-0.5875864237135501,-0.7254354406228053,-0.6592830453464795,2.0,1.0,0.0
-0.7914779350237137,-0.8745337997630465,-0.8429276844815705,-1.432833368787355,-0.10963673094163794,-0.30391814626185143,-0.21484642231495657,1.076454263407182,0.820156310690848,1.0238338242867786,-0.5875864237135501,-0.7254354406228053,-0.6746553530395308,2.0,1.0,0.0
-0.7914779350237137,-0.7801747982062861,-0.7408968806690917,-1.432833368787355,0.3800447860470069,0.16294290407672343,0.2830423040731587,0.1596896009109104,-0.07883464602524744,0.024119462004876132,-0.753833860850938,-0.8871577455150473,-0.8437507376630956,2.0,1.0,0.0
0.47851574283074455,0.8239282282586402,0.44980259982253756,2.12467639382183,0.9212717258765618,0.7335508544905371,0.8639124848592932,2.1561993103472354,1.8789678819342495,2.1539457120837118,1.2411353847977165,1.053509913191858,1.185393877819681,1.0,1.0,0.0
-0.8973107415115852,-0.7801747982062861,-0.8255824478334489,0.3459215125172375,1.1274534172402015,0.9151079296222052,1.0851963632540111,2.0135914739589262,1.7191472674069437,2.001815265649509,0.0774033248360014,-0.07854622105383689,0.017098493147779375,3.0,1.0,0.0
-0.7914779350237137,-0.8745337997630465,-0.8429276844815705,-1.432833368787355,0.3800447860470069,0.16294290407672343,0.2830423040731587,0.1596896009109104,-0.09881222284116067,0.024119462004876132,-0.753833860850938,-0.8871577455150473,-0.8437507376630956,2.0,1.0,0.0
-0.6856451285358421,-0.7801747982062861,-0.7704858137747104,-1.432833368787355,0.6377719002515567,0.4482468792836303,0.5873076368658959,-0.06440842769928935,-0.31856556781620626,-0.2149426681060136,-0.7387204574748117,-0.8724557177975708,-0.813006122276993,2.0,1.0,0.0
-0.5798123220479706,-0.497097793536005,-0.5878506749503732,-1.432833368787355,-0.10963673094163794,-0.30391814626185143,-0.21484642231495657,1.0968268114626547,0.8401338875067613,1.0455667452059505,-0.5875864237135501,-0.7254354406228053,-0.6592830453464795,2.0,1.0,0.0
-1.2148091609751996,-0.9688928013198068,-1.1490200959190073,0.3459215125172375,1.1532261286606567,0.9669813796598244,1.112856848053351,1.9728463778479808,1.6991696905910305,1.9583494238111656,0.032063114707622936,-0.12265230420626659,-0.02901842993137468,2.0,1.0,0.0
-0.8973107415115852,-0.7801747982062861,-0.8429276844815705,-1.432833368787355,0.6377719002515567,0.47418360430244,0.5873076368658959,0.8931013309079278,0.6603356961635423,0.8282375360142326,-0.7084936507225594,-0.7842435514927115,-0.7515168915047876,2.0,1.0,0.0
-0.8973107415115852,-0.7801747982062861,-0.7919122825753311,0.3459215125172375,1.1532261286606567,0.9669813796598244,1.112856848053351,1.9728463778479808,1.6991696905910305,1.9583494238111656,0.032063114707622936,-0.12265230420626659,-0.02901842993137468,2.0,1.0,0.0
-0.5798123220479706,-0.7801747982062861,-0.6592722376191088,0.3459215125172375,1.1274534172402015,0.9151079296222052,1.0851963632540111,2.0135914739589262,1.739124844222857,2.001815265649509,0.0774033248360014,-0.07854622105383689,0.017098493147779375,3.0,1.0,0.0
-1.2148091609751996,-1.0632518028765672,-1.1490200959190073,-1.432833368787355,0.3800447860470069,0.16294290407672343,0.2830423040731587,0.1596896009109104,-0.09881222284116067,0.024119462004876132,-0.753833860850938,-0.8871577455150473,-0.8437507376630956,2.0,1.0,0.0
-0.6856451285358421,-0.8745337997630465,-0.781709202194083,-1.432833368787355,0.3800447860470069,0.16294290407672343,0.2830423040731587,0.1596896009109104,-0.09881222284116067,0.024119462004876132,-0.753833860850938,-0.8871577455150473,-0.8437507376630956,2.0,1.0,0.0
-0.7914779350237137,-0.9688928013198068,-0.8837400060065619,-1.432833368787355,0.3800447860470069,0.16294290407672343,0.2830423040731587,0.1596896009109104,-0.07883464602524744,0.024119462004876132,-0.753833860850938,-0.8871577455150473,-0.8437507376630956,2.0,1.0,0.0
-0.15648109609648456,-0.21402078886572387,-0.1287120577942181,0.3459215125172375,0.7666354573538317,0.5779305043776789,0.6979495760632548,-1.734957368248051,-1.9367492899051784,-1.9970421834781007,0.9842075274035716,0.8035754419947564,0.9240646470378083,2.0,1.0,0.0
-1.3206419674630712,-0.30837979042248426,-0.8765978497396884,-1.432833368787355,-0.10963673094163794,-0.30391814626185143,-0.21484642231495657,0.6282582061867826,0.36067204392484375,0.5239766431458274,-0.6933802473464332,-0.8283496346451411,-0.7822615068908902,2.0,1.0,0.0
-0.7914779350237137,-0.7801747982062861,-0.7919122825753311,-1.432833368787355,-0.13540944236209296,-0.3557915962994708,-0.27016739191363603,0.9338464270188732,0.6803132729794555,0.8717033778525762,-0.6329266338419286,-0.769541523775235,-0.7053999684256336,1.0,1.0,0.0
-0.6856451285358421,-0.7801747982062861,-0.7408968806690917,0.3459215125172375,1.1274534172402015,0.9151079296222052,1.0851963632540111,2.0135914739589262,1.7191472674069437,2.001815265649509,0.0774033248360014,-0.07854622105383689,0.001726185454728024,3.0,1.0,0.0
0.584348549318616,2.239313251610046,2.013934822267839,-1.432833368787355,0.019226826160636996,0.6298039544152982,0.36602375847117796,-0.04403587964381663,0.8800890411385879,0.6761070895800299,-0.8142874743554427,-0.6960313851878521,-0.7668891991978388,1.0,1.0,0.0
-0.7914779350237137,-0.6858157966495257,-0.7408968806690917,-1.432833368787355,0.3800447860470069,0.16294290407672343,0.2830423040731587,0.1596896009109104,-0.09881222284116067,0.024119462004876132,-0.753833860850938,-0.8871577455150473,-0.8437507376630956,2.0,1.0,0.0
-1.2148091609751996,-1.3463288075468482,-1.3020663016377256,-1.432833368787355,-0.16118215378254797,-0.3298548712806611,-0.27016739191363603,1.0560817153517092,0.820156310690848,1.002100903367607,-0.6026998270896763,-0.7254354406228053,-0.6746553530395308,2.0,1.0,0.0
-1.2148091609751996,-1.4406878091036086,-1.353081703543965,-1.432833368787355,-0.13540944236209296,-0.3298548712806611,-0.27016739191363603,1.0560817153517092,0.800178733874935,1.002100903367607,-0.5875864237135501,-0.7254354406228053,-0.6746553530395308,2.0,1.0,0.0
-0.6856451285358421,-0.8745337997630465,-0.7613030414315877,-1.432833368787355,0.6377719002515567,0.4223101542648206,0.5596471520665561,0.8931013309079278,0.640358119347629,0.8282375360142326,-0.678266843970307,-0.8136476069276647,-0.7668891991978388,2.0,1.0,0.0
-0.5798123220479706,-0.7801747982062861,-0.7204907199065955,0.3459215125172375,1.1274534172402015,0.9151079296222052,1.0851963632540111,2.0135914739589262,1.7191472674069437,2.001815265649509,0.0774033248360014,-0.07854622105383689,0.001726185454728024,2.0,1.0,0.0
-0.6856451285358421,-0.6858157966495257,-0.6898814787628521,-1.432833368787355,0.3027266517856419,0.11106945403910401,0.2277213344744793,1.1783170036845456,0.9000666179545012,1.110765507963466,-0.6026998270896763,-0.7401374683402818,-0.6746553530395308,2.0,1.0,0.0
-0.15648109609648456,-0.4027387919792446,-0.2480880982548186,-1.432833368787355,0.4315902088879169,0.21481635411434288,0.3383632736718382,0.872728782852455,0.6004029657158025,0.784771694175889,-0.6933802473464332,-0.8283496346451411,-0.7822615068908902,2.0,1.0,0.0
-1.1089763544873281,-0.9688928013198068,-1.1490200959190073,-1.432833368787355,-0.13540944236209296,-0.3298548712806611,-0.24250690711429626,1.0153366192407638,0.7602235802431084,0.9586350615292633,-0.6026998270896763,-0.7401374683402818,-0.6900276607325823,1.0,1.0,0.0
-0.4739795155600991,-0.21402078886572387,-0.41439830846915876,-1.432833368787355,-0.18695486520300292,-0.38172832131828055,-0.2978278767129758,0.9338464270188732,0.6803132729794555,0.8499704569334043,-0.6329266338419286,-0.769541523775235,-0.7053999684256336,1.0,1.0,0.0
-0.6856451285358421,-0.7801747982062861,-0.7408968806690917,-1.432833368787355,0.6635446116720117,0.4482468792836303,0.5873076368658959,0.9134738789634005,0.6603356961635423,0.8499704569334043,-0.678266843970307,-0.8136476069276647,-0.7515168915047876,2.0,1.0,0.0
0.47851574283074455,0.35213322047483836,0.3987871979162981,-1.432833368787355,-1.0632270534984727,-1.2635769719578107,-1.2382843598905267,0.6486307542422554,0.4206047743725835,0.567442484984171,-0.4515657933284146,-0.5931171911655163,-0.5363045838020689,5.0,0.0,27.0
0.47851574283074455,0.257774218918078,0.32022347898068976,0.3459215125172375,0.2511812289447319,0.0591960040014846,0.1724003648757998,-1.0422907343619792,-1.2575116781641285,-1.236389951307088,1.9061251333472682,1.700399132760826,1.86177541631394,0.0,0.0,27.0
-0.3681467090722276,-0.6858157966495257,-0.5368352730441338,0.3459215125172375,-0.083864019521183,-0.2779814212430417,-0.18718593751561682,1.769120897293254,1.479416345615985,1.7410202146194478,1.7096508894576279,1.509272772433631,1.677307723997324,0.0,0.0,27.0
-0.26231390258435605,-0.30837979042248426,-0.3327736654191759,0.3459215125172375,0.9212717258765618,0.7335508544905371,0.891572969658633,-0.2070162640875983,-0.41845345189577243,-0.34534019362104434,-0.7084936507225594,-0.8430516623626176,-0.7822615068908902,5.0,0.0,27.0
0.47851574283074455,0.5408512235883591,0.5650974081306382,-1.432833368787355,-1.1920906106007476,-0.8226526466380457,-0.9340190270977898,-0.18664371603212557,1.4993939224318982,0.1327840666007351,-0.6178132304658025,0.28900447188307693,-0.6592830453464795,0.0,0.0,27.0
0.05518451687925848,-0.1196617873089635,-0.02668125398173917,0.3459215125172375,0.9212717258765618,0.7335508544905371,0.891572969658633,-0.2070162640875983,-0.41845345189577243,-0.34534019362104434,-0.7084936507225594,-0.8430516623626176,-0.7822615068908902,5.0,0.0,27.0
-0.050648289608613034,0.9182872298154006,0.43245736317441597,2.12467639382183,-0.4189092679870979,2.108197280487452,1.306480241648729,-1.6127220799152149,1.3595508847205056,-0.25840850994435716,-0.9956483148689566,0.0684740561209286,-0.5670491991881715,0.0,0.0,27.0
-0.15648109609648456,-0.21402078886572387,-0.23074286160669702,0.3459215125172375,0.8954990144561068,0.7335508544905371,0.8639124848592932,-0.2070162640875983,-0.41845345189577243,-0.34534019362104434,-0.7084936507225594,-0.8430516623626176,-0.7822615068908902,5.0,0.0,27.0
0.16101732336713,0.16341521736131762,0.2181926751682108,0.3459215125172375,1.8748620484333964,1.719146405205306,1.9150109072342032,0.28192488924374665,0.041030814870231996,0.1545169875199069,-0.496906003456793,-0.637223274317946,-0.5824215068812227,5.0,0.0,27.0
0.05518451687925848,-0.21402078886572387,-0.1113668211460965,0.3459215125172375,0.8439535916151968,0.655740679434108,0.7809310304612741,-0.22738881214307097,-0.43843102871168566,-0.3670731145402162,-0.7084936507225594,-0.8430516623626176,-0.7976338145839416,5.0,0.0,27.0
-0.26231390258435605,-0.497097793536005,-0.3837890673254154,0.3459215125172375,1.8748620484333964,1.719146405205306,1.9150109072342032,0.2615523411882739,0.0010756612384055174,0.1327840666007351,-0.5120194068329191,-0.637223274317946,-0.5824215068812227,5.0,0.0,27.0
0.05518451687925848,-0.21402078886572387,-0.06035141923985704,0.3459215125172375,0.8439535916151968,0.655740679434108,0.7809310304612741,-0.22738881214307097,-0.43843102871168566,-0.3670731145402162,-0.7084936507225594,-0.8430516623626176,-0.7976338145839416,5.0,0.0,27.0
-0.050648289608613034,-0.30837979042248426,-0.21033670084420092,0.3459215125172375,0.9212717258765618,0.7335508544905371,0.8639124848592932,-0.2070162640875983,-0.41845345189577243,-0.34534019362104434,-0.7084936507225594,-0.8430516623626176,-0.7822615068908902,5.0,0.0,27.0
-0.3681467090722276,-0.30837979042248426,-0.3501189020672975,0.3459215125172375,0.9470444372970168,0.7854243045281566,0.9192334544579728,-0.2070162640875983,-0.41845345189577243,-0.34534019362104434,-0.7084936507225594,-0.8283496346451411,-0.7822615068908902,5.0,0.0,27.0
0.16101732336713,0.16341521736131762,0.16003511699509707,-1.432833368787355,-1.2694087448621127,0.13700617905791374,-1.2936053294892063,-0.8793103499181977,0.640358119347629,0.3935791176307966,-0.8142874743554427,-0.2843746090985086,-0.5055599684159662,0.0,0.0,27.0
0.2668501298550015,0.16341521736131762,0.262065920807576,-1.432833368787355,-0.8054999392939227,-1.0042097217697137,-0.9616795118971294,0.017081764522601475,-0.1787225301048136,-0.10627806351015462,-0.5724730203374239,-0.7107334129053287,-0.6592830453464795,5.0,0.0,27.0
0.05518451687925848,-0.1196617873089635,-0.047087414744235244,0.3459215125172375,1.8748620484333964,1.719146405205306,1.9150109072342032,0.28192488924374665,0.041030814870231996,0.1545169875199069,-0.496906003456793,-0.637223274317946,-0.5824215068812227,5.0,0.0,27.0
0.16101732336713,0.16341521736131762,0.13656803211822652,-1.432833368787355,-0.8054999392939227,-1.0042097217697137,-0.9616795118971294,0.017081764522601475,-0.1787225301048136,-0.10627806351015462,-0.5724730203374239,-0.7107334129053287,-0.6592830453464795,5.0,0.0,27.0
0.47851574283074455,0.06905621580455724,0.2794111574556976,-1.432833368787355,-0.9859089192371079,-0.796715921619236,-1.017000481495809,0.526395465909419,1.6791921137751171,0.8499704569334043,-0.6480400372180548,0.14198419470831136,-0.5055599684159662,0.0,0.0,27.0
0.05518451687925848,0.06905621580455724,0.014131067543252978,0.3459215125172375,1.8748620484333964,1.719146405205306,1.9150109072342032,0.2615523411882739,0.0010756612384055174,0.1327840666007351,-0.5120194068329191,-0.637223274317946,-0.5824215068812227,5.0,0.0,27.0
0.47851574283074455,1.767518243826244,0.7212045379637311,-1.432833368787355,-0.8312726507143777,-1.0042097217697137,-0.9893399966964692,-0.32925155242043447,-0.5582964896071652,-0.4974706400552469,-0.5120194068329191,-0.637223274317946,-0.5824215068812227,0.0,0.0,27.0
0.05518451687925848,-0.30837979042248426,-0.1287120577942181,0.3459215125172375,0.2511812289447319,0.0591960040014846,0.1724003648757998,-1.0422907343619792,-1.2575116781641285,-1.236389951307088,1.9061251333472682,1.6856971050433496,1.86177541631394,0.0,0.0,27.0
-0.15648109609648456,-0.025302785752203127,-0.09504189253610022,-1.432833368787355,-0.6508636707711927,-0.7448424715816165,-0.7403956335024117,0.05782686063354686,-0.13876737647298715,-0.04107930075263925,-0.6480400372180548,-0.7548394960577584,-0.7207722761186849,0.0,0.0,27.0
-0.5798123220479706,-0.7801747982062861,-0.6592722376191088,0.3459215125172375,0.9728171487174717,0.7854243045281566,0.9192334544579728,-0.2070162640875983,-0.41845345189577243,-0.34534019362104434,-0.7084936507225594,-0.8283496346451411,-0.7822615068908902,5.0,0.0,27.0
0.05518451687925848,-0.025302785752203127,0.02433414792450029,0.3459215125172375,0.17386309468336694,0.0851327290202943,0.1724003648757998,-1.1034083785283975,-1.237534101348215,-1.2581228722262598,1.8456715198427633,1.8033133267831618,1.86177541631394,5.0,0.0,27.0
-0.4739795155600991,-0.497097793536005,-0.5878506749503732,0.3459215125172375,-0.083864019521183,-0.2779814212430417,-0.18718593751561682,1.7283758011823085,1.479416345615985,1.7192872937002759,1.7247642928337539,1.5386768278685843,1.6926800316903754,0.0,0.0,27.0
0.37268293634287303,-0.025302785752203127,0.17738035364321866,-1.432833368787355,-1.1405451877598376,-1.34138714701424,-1.321265814288546,0.526395465909419,0.3207168902930173,0.458777880388312,-0.4364523899522884,-0.5784151634480398,-0.5055599684159662,0.0,0.0,27.0
1.4310110012215882,1.6731592422694834,1.4701106379473268,-1.432833368787355,-0.7281818050325577,-0.3298548712806611,-0.8233770879004307,-1.3886240513050152,-0.3385431446321195,-0.47573771913607515,-0.6178132304658025,-0.005036082466454143,-0.6285384299603768,0.0,0.0,27.0
0.47851574283074455,0.35213322047483836,0.41511212652629437,-1.432833368787355,-0.7797272278734677,-0.978272996750904,-0.9616795118971294,0.017081764522601475,-0.1787225301048136,-0.08454514259098284,-0.5875864237135501,-0.7107334129053287,-0.6592830453464795,5.0,0.0,27.0
0.37268293634287303,0.257774218918078,0.3090000905613171,0.3459215125172375,-1.8621811075325776,-0.9263995467132845,-1.6531916318806228,-1.1645260226948153,1.0399096556658938,-0.25840850994435716,-0.7991740709793165,0.583045026232608,0.12470464699913876,0.0,0.0,27.0
0.47851574283074455,0.16341521736131762,0.3610358005056804,-1.432833368787355,-0.5735455365098279,-0.7707791966004263,-0.7127351487030719,0.7708660425750914,0.5404702352680629,0.6978400104992017,-0.6026998270896763,-0.7401374683402818,-0.6746553530395308,0.0,0.0,27.0
0.2668501298550015,0.4464922220315987,0.33042655936193704,-1.432833368787355,-1.011681630657563,-1.2117035219201915,-1.2106238750911873,0.4856503697984737,0.28076173666119086,0.3935791176307966,-0.496906003456793,-0.637223274317946,-0.5670491991881715,5.0,0.0,27.0
0.16101732336713,-0.1196617873089635,0.034537228305747604,0.3459215125172375,0.8697263030356518,0.6816774044529177,0.8362520000599535,-0.2070162640875983,-0.41845345189577243,-0.34534019362104434,-0.7387204574748117,-0.8283496346451411,-0.7976338145839416,5.0,0.0,27.0
-0.26231390258435605,-0.30837979042248426,-0.3154284287710543,0.3459215125172375,0.9212717258765618,0.7594875795093469,0.891572969658633,-0.2070162640875983,-0.41845345189577243,-0.34534019362104434,-0.7084936507225594,-0.8430516623626176,-0.7822615068908902,5.0,0.0,27.0
0.6901813558064875,0.4464922220315987,0.5344881669868948,5.6821861564310145,-2.506498893043952,1.018854829697444,-0.7403956335024117,-2.7739573190771587,2.857869145913998,0.567442484984171,-2.265174198463555,0.9947018023219516,-0.35183689148545283,0.0,0.0,27.0
-0.26231390258435605,-0.21402078886572387,-0.23074286160669702,0.3459215125172375,0.27695394036518695,0.0851327290202943,0.1724003648757998,-1.062663282417452,-1.2774892549800416,-1.2798557931454315,1.8910117299711418,1.6856971050433496,1.8464031086208885,5.0,0.0,27.0
-0.4739795155600991,-0.5914567950927654,-0.5368352730441338,0.3459215125172375,-0.058091308100727976,-0.2520446962242319,-0.18718593751561682,1.7283758011823085,1.4594387688000716,1.7192872937002759,1.73987769620988,1.5386768278685843,1.6926800316903754,0.0,0.0,27.0
0.16101732336713,-0.1196617873089635,0.02433414792450029,0.3459215125172375,0.2511812289447319,0.0591960040014846,0.1724003648757998,-1.0422907343619792,-1.2575116781641285,-1.236389951307088,1.9061251333472682,1.6856971050433496,1.86177541631394,5.0,0.0,27.0
0.16101732336713,0.16341521736131762,0.17738035364321866,3.9034312751264224,-2.4291807587825875,2.8862990310517436,-0.1042044831175976,-2.0405455890801414,3.23744310541635,0.08931822476239151,-1.3583699958959845,1.2152322180840998,-0.24423073763409336,0.0,0.0,27.0
0.2668501298550015,-0.025302785752203127,0.1263649517369792,-1.432833368787355,-1.1405451877598376,-1.2895136969766203,-1.321265814288546,0.05782686063354686,-0.13876737647298715,-0.04107930075263925,-0.4666791967045408,-0.5784151634480398,-0.5363045838020689,0.0,0.0,27.0
0.37268293634287303,0.16341521736131762,0.2794111574556976,-1.432833368787355,-1.0632270534984727,-1.2635769719578107,-1.2382843598905267,0.6690033022977281,0.4206047743725835,0.5891754059033427,-0.4515657933284146,-0.5931171911655163,-0.5363045838020689,5.0,0.0,27.0
-0.4739795155600991,-0.7801747982062861,-0.6388660768566127,0.3459215125172375,-0.058091308100727976,-0.2520446962242319,-0.18718593751561682,1.748748349237781,1.4594387688000716,1.7192872937002759,1.73987769620988,1.5239748001511073,1.6926800316903754,0.0,0.0,27.0
-0.4739795155600991,-0.025302785752203127,-0.3327736654191759,0.3459215125172375,-0.10963673094163794,-0.2779814212430417,-0.21484642231495657,1.7283758011823085,1.479416345615985,1.7192872937002759,1.7096508894576279,1.5386768278685843,1.677307723997324,0.0,0.0,27.0
-0.050648289608613034,-0.1196617873089635,-0.06749357550673132,0.3459215125172375,0.8181808801947418,0.6298039544152982,0.7809310304612741,-0.2070162640875983,-0.43843102871168566,-0.3670731145402162,-0.7084936507225594,-0.8430516623626176,-0.7976338145839416,5.0,0.0,27.0
0.05518451687925848,-0.025302785752203127,0.05494338906824368,0.3459215125172375,0.9728171487174717,0.7854243045281566,0.9468939392573125,-0.2070162640875983,-0.43843102871168566,-0.34534019362104434,-0.6933802473464332,-0.8283496346451411,-0.7822615068908902,5.0,0.0,27.0
-0.15648109609648456,-0.4027387919792446,-0.2715551831316884,0.3459215125172375,1.8748620484333964,1.719146405205306,1.9150109072342032,0.28192488924374665,0.041030814870231996,0.1545169875199069,-0.5120194068329191,-0.637223274317946,-0.5824215068812227,5.0,0.0,27.0
0.6901813558064875,0.4464922220315987,0.602848805541256,-1.432833368787355,-1.0632270534984727,-1.2635769719578107,-1.2382843598905267,0.6690033022977281,0.4206047743725835,0.567442484984171,-0.4515657933284146,-0.5931171911655163,-0.5363045838020689,5.0,0.0,27.0
0.584348549318616,0.35213322047483836,0.500818001728777,0.3459215125172375,-2.1456809331575823,-0.5373486714311387,-1.5978706622819434,-1.2256436668612334,0.640358119347629,-1.214657030387916,-0.9351947013644522,0.7594693588423267,0.4167784931671142,0.0,0.0,27.0
0.47851574283074455,0.16341521736131762,0.2936954699894447,0.3459215125172375,-1.5271358590666626,-0.6410955715063777,-0.9893399966964692,-0.7978201576963068,1.7990575746705968,1.0455667452059505,-1.4037102060243631,1.3328484398239122,-0.33646458379240146,0.0,0.0,27.0
-0.050648289608613034,-0.025302785752203127,-0.02668125398173917,0.3459215125172375,0.8181808801947418,0.6298039544152982,0.7809310304612741,-0.22738881214307097,-0.43843102871168566,-0.3670731145402162,-0.7084936507225594,-0.8430516623626176,-0.7976338145839416,5.0,0.0,27.0
0.05518451687925848,-0.30837979042248426,-0.1287120577942181,0.3459215125172375,0.27695394036518695,0.0591960040014846,0.1724003648757998,-1.0422907343619792,-1.2575116781641285,-1.2581228722262598,1.9061251333472682,1.6856971050433496,1.86177541631394,5.0,0.0,27.0
0.2668501298550015,2.4280312547235665,0.7283466942306054,0.3459215125172375,0.17386309468336694,1.7710198552429255,0.7256100608625945,-0.22738881214307097,2.6780709545707793,0.458777880388312,-0.7991740709793165,0.5683429985151315,-0.6439107376534282,0.0,0.0,27.0
0.9018469687822306,0.9182872298154006,1.014032944905546,-1.432833368787355,-0.8054999392939227,-1.0042097217697137,-0.9616795118971294,0.017081764522601475,-0.1787225301048136,-0.10627806351015462,-0.5724730203374239,-0.7107334129053287,-0.6592830453464795,5.0,0.0,27.0
0.584348549318616,0.257774218918078,0.43245736317441597,-1.432833368787355,-1.1405451877598376,-0.5373486714311387,-1.0999819358938283,-0.5126044849196889,0.1409186989497982,0.08931822476239151,-0.6026998270896763,-0.4607989417082272,-0.5977938145742742,0.0,0.0,27.0
0.2668501298550015,0.35213322047483836,0.25900499669320154,-1.432833368787355,-0.7797272278734677,-0.978272996750904,-0.9616795118971294,0.03745431257807417,-0.1787225301048136,-0.08454514259098284,-0.5875864237135501,-0.7107334129053287,-0.6592830453464795,5.0,0.0,27.0
0.47851574283074455,0.4464922220315987,0.44980259982253756,-1.432833368787355,-0.7281818050325577,-0.9263995467132845,-0.90635854229845,0.3837876295211101,0.16089627576571142,0.2849145130349377,-0.6026998270896763,-0.7401374683402818,-0.6746553530395308,5.0,0.0,27.0
0.05518451687925848,0.06905621580455724,0.07534954983073974,0.3459215125172375,0.27695394036518695,0.0851327290202943,0.1724003648757998,-1.062663282417452,-1.2774892549800416,-1.2581228722262598,1.8910117299711418,1.6856971050433496,1.86177541631394,5.0,0.0,27.0
-0.7914779350237137,-0.7801747982062861,-0.8021153629565791,0.3459215125172375,-0.058091308100727976,-0.2520446962242319,-0.18718593751561682,1.7283758011823085,1.4594387688000716,1.7192872937002759,1.73987769620988,1.5386768278685843,1.7080523393834268,0.0,0.0,27.0
-0.050648289608613034,-0.4027387919792446,-0.23074286160669702,0.3459215125172375,0.8181808801947418,0.6298039544152982,0.7809310304612741,-0.2070162640875983,-0.43843102871168566,-0.3670731145402162,-0.7084936507225594,-0.8430516623626176,-0.7976338145839416,5.0,0.0,27.0
-0.26231390258435605,-0.21402078886572387,-0.3664438306772938,0.3459215125172375,1.4882713771265714,1.38196897996078,1.5001036352441073,-0.08478097575476208,-0.298587991000293,-0.19320974718684178,-0.6026998270896763,-0.7254354406228053,-0.6900276607325823,0.0,0.0,27.0
-0.4739795155600991,-0.7801747982062861,-0.6388660768566127,0.3459215125172375,-0.058091308100727976,-0.2520446962242319,-0.18718593751561682,1.7283758011823085,1.4594387688000716,1.6975543727811042,1.73987769620988,1.5386768278685843,1.7080523393834268,0.0,0.0,27.0
0.16101732336713,-0.025302785752203127,0.034537228305747604,0.3459215125172375,1.8748620484333964,1.719146405205306,1.9150109072342032,0.28192488924374665,0.041030814870231996,0.1545169875199069,-0.5120194068329191,-0.637223274317946,-0.5824215068812227,5.0,0.0,27.0
-0.3681467090722276,-0.6858157966495257,-0.5368352730441338,0.3459215125172375,-0.083864019521183,-0.2779814212430417,-0.18718593751561682,1.769120897293254,1.4993939224318982,1.7410202146194478,1.7096508894576279,1.509272772433631,1.677307723997324,0.0,0.0,27.0
0.2668501298550015,0.257774218918078,0.262065920807576,-1.432833368787355,-1.011681630657563,-1.2117035219201915,-1.2106238750911873,0.5060229178539464,0.28076173666119086,0.41531203854996845,-0.496906003456793,-0.637223274317946,-0.5670491991881715,5.0,0.0,27.0
0.05518451687925848,-0.1196617873089635,0.034537228305747604,0.3459215125172375,0.8181808801947418,0.655740679434108,0.7809310304612741,-0.22738881214307097,-0.43843102871168566,-0.3670731145402162,-0.7236070540986855,-0.8430516623626176,-0.7976338145839416,5.0,0.0,27.0
0.16101732336713,0.06905621580455724,0.09269478647886134,0.3459215125172375,0.2511812289447319,0.0591960040014846,0.1724003648757998,-1.0422907343619792,-1.2575116781641285,-1.236389951307088,1.9061251333472682,1.6856971050433496,1.86177541631394,5.0,0.0,27.0
0.2668501298550015,0.06905621580455724,0.17738035364321866,-1.432833368787355,-0.8054999392939227,-1.0042097217697137,-0.9616795118971294,-0.3496241004759072,-0.5582964896071652,-0.4974706400552469,-0.5120194068329191,-0.637223274317946,-0.5824215068812227,0.0,0.0,27.0
0.37268293634287303,0.06905621580455724,0.25900499669320154,2.12467639382183,-1.9652719532143976,3.6125273315784154,0.36602375847117796,-2.7943298671326313,2.198609110988862,-0.6930669283277932,-0.8898544912360736,2.06794982569774,0.032470800840830726,0.0,0.0,27.0
0.2668501298550015,0.06905621580455724,0.17738035364321866,-1.432833368787355,-0.8312726507143777,-1.0042097217697137,-0.9616795118971294,-0.3496241004759072,-0.5383189127912519,-0.4974706400552469,-0.5120194068329191,-0.637223274317946,-0.5824215068812227,0.0,0.0,27.0
0.16101732336713,0.16341521736131762,0.16003511699509707,0.3459215125172375,-1.9910446646348523,0.007322553963865162,-0.8233770879004307,-1.7757024643589965,0.8800890411385879,-0.10627806351015462,-1.8117720971797695,0.74476733112485,-0.5977938145742742,0.0,0.0,27.0
1.3251781947337167,1.295723236042442,1.4894964906716974,0.3459215125172375,-3.3054529470780567,2.575058330826027,-0.9616795118971294,-1.816447560469942,1.9389006123819894,-0.2149426681060136,-0.7236070540986855,1.0241058577569047,0.2630554162366008,0.0,0.0,27.0
0.37268293634287303,0.4464922220315987,0.351853028162557,-1.432833368787355,-0.7797272278734677,-0.978272996750904,-0.9616795118971294,0.017081764522601475,-0.1787225301048136,-0.08454514259098284,-0.5875864237135501,-0.7107334129053287,-0.6592830453464795,5.0,0.0,27.0
0.47851574283074455,0.257774218918078,0.31308132271381545,-1.432833368787355,-1.2436360334416576,-0.1742345211678028,-0.6574141791043924,-0.32925155242043447,1.9788557660138157,0.2197157502774223,-0.7840606676031903,0.4066206936228894,-0.6131661222673255,0.0,0.0,27.0
0.584348549318616,0.9182872298154006,0.7079405334681094,-1.432833368787355,-1.1920906106007476,0.5519937793588692,-0.795716603101091,-0.9200554460291429,1.2796405774568527,0.35011327579245305,-0.753833860850938,-0.22556649822860247,-0.6746553530395308,5.0,0.0,27.0
0.47851574283074455,0.9182872298154006,0.8579258150724532,-1.432833368787355,-0.7797272278734677,-0.978272996750904,-0.9616795118971294,0.017081764522601475,-0.1787225301048136,-0.08454514259098284,-0.5724730203374239,-0.7107334129053287,-0.6592830453464795,5.0,0.0,27.0
-0.15648109609648456,-0.025302785752203127,-0.1287120577942181,0.3459215125172375,1.8748620484333964,1.719146405205306,1.9150109072342032,0.28192488924374665,0.041030814870231996,0.1545169875199069,-0.5120194068329191,-0.637223274317946,-0.5824215068812227,5.0,0.0,27.0
-0.3681467090722276,-0.30837979042248426,-0.31236750465667984,0.3459215125172375,1.8748620484333964,1.719146405205306,1.9150109072342032,0.2615523411882739,0.0010756612384055174,0.1327840666007351,-0.5120194068329191,-0.637223274317946,-0.5824215068812227,5.0,0.0,27.0
-0.4739795155600991,-0.6858157966495257,-0.5541805096922553,0.3459215125172375,-0.083864019521183,-0.2779814212430417,-0.18718593751561682,1.769120897293254,1.479416345615985,1.7410202146194478,1.7096508894576279,1.509272772433631,1.677307723997324,0.0,0.0,27.0
0.6901813558064875,1.1070052329289213,0.8069104131662138,-1.432833368787355,-1.0632270534984727,-1.2635769719578107,-1.2382843598905267,0.6486307542422554,0.4206047743725835,0.567442484984171,-0.4515657933284146,-0.5931171911655163,-0.5363045838020689,5.0,0.0,27.0
0.47851574283074455,0.257774218918078,0.31308132271381545,-1.432833368787355,-1.1663178991802927,-1.3673238720330498,-1.3489262990878859,0.3430425334101647,0.10096354531797169,0.24144867119659408,-0.4364523899522884,-0.5784151634480398,-0.5209322761090175,0.0,0.0,27.0
0.47851574283074455,0.7295692267018798,0.7722199398699706,-1.432833368787355,-1.0632270534984727,-1.2635769719578107,-1.2382843598905267,0.6486307542422554,0.4206047743725835,0.567442484984171,-0.4515657933284146,-0.5931171911655163,-0.5363045838020689,5.0,0.0,27.0
0.47851574283074455,0.6352102251451195,0.4834727650806554,-1.432833368787355,-0.7797272278734677,-0.978272996750904,-0.9616795118971294,0.03745431257807417,-0.1787225301048136,-0.08454514259098284,-0.5875864237135501,-0.7107334129053287,-0.6592830453464795,5.0,0.0,27.0
0.16101732336713,-0.21402078886572387,-0.02668125398173917,0.3459215125172375,1.8748620484333964,1.719146405205306,1.9150109072342032,0.2615523411882739,0.0010756612384055174,0.1327840666007351,-0.5120194068329191,-0.637223274317946,-0.5824215068812227,5.0,0.0,27.0
0.9018469687822306,0.6352102251451195,0.7487528549931001,-1.432833368787355,-0.7281818050325577,-0.9263995467132845,-0.90635854229845,0.3837876295211101,0.16089627576571142,0.2849145130349377,-0.6026998270896763,-0.7401374683402818,-0.6746553530395308,5.0,0.0,27.0
0.2668501298550015,-0.025302785752203127,0.10901971508885762,-1.432833368787355,-0.7797272278734677,-0.978272996750904,-0.9340190270977898,0.2615523411882739,0.041030814870231996,0.1545169875199069,-0.5875864237135501,-0.7254354406228053,-0.6746553530395308,3.0,1.0,27.0
0.2668501298550015,0.06905621580455724,0.2181926751682108,-1.432833368787355,-0.6766363821916477,-0.874526096675665,-0.8510375726997705,0.3022974372992193,0.08098596850205846,0.19798282935825048,-0.6178132304658025,-0.7548394960577584,-0.6900276607325823,2.0,1.0,27.0
0.2668501298550015,-0.025302785752203127,0.10901971508885762,-1.432833368787355,-1.0889997649189276,-1.2895136969766203,-1.2659448446898665,0.9542189750743459,0.720268426611282,0.8934362987717478,-0.3457719696955313,-0.5049050248606569,-0.4286984299507094,2.0,1.0,27.0
-0.15648109609648456,-0.1196617873089635,-0.14911821855671417,0.3459215125172375,1.900634759853851,1.719146405205306,1.9426713920335428,0.28192488924374665,0.021053238054318753,0.1545169875199069,-0.496906003456793,-0.637223274317946,-0.5824215068812227,2.0,1.0,27.0
0.2668501298550015,-0.025302785752203127,0.1437101883851008,-1.432833368787355,-0.7797272278734677,-0.978272996750904,-0.9340190270977898,0.2615523411882739,0.041030814870231996,0.1545169875199069,-0.5875864237135501,-0.7254354406228053,-0.6746553530395308,3.0,1.0,27.0
-0.26231390258435605,-0.21402078886572387,-0.23074286160669702,0.3459215125172375,1.8748620484333964,1.6932096801864962,1.9150109072342032,0.2615523411882739,0.021053238054318753,0.1545169875199069,-0.5120194068329191,-0.6519253020354224,-0.5824215068812227,2.0,1.0,27.0
-0.050648289608613034,0.06905621580455724,-0.06749357550673132,-1.432833368787355,-0.8054999392939227,-1.0042097217697137,-0.9616795118971294,1.1783170036845456,0.9000666179545012,1.110765507963466,-0.3911121798239099,-0.5343090802956101,-0.47481535302986344,2.0,1.0,27.0
-0.26231390258435605,-0.497097793536005,-0.3664438306772938,0.3459215125172375,1.900634759853851,1.719146405205306,1.9150109072342032,0.2615523411882739,0.021053238054318753,0.1545169875199069,-0.496906003456793,-0.637223274317946,-0.5824215068812227,2.0,1.0,27.0
-0.3681467090722276,0.06905621580455724,-0.23074286160669702,-1.432833368787355,-0.4962274022484628,-0.6670322965251875,-0.6297536943050526,0.05782686063354686,-0.15874495328890037,-0.04107930075263925,-0.663153440594181,-0.798945579210188,-0.7515168915047876,2.0,1.0,27.0
0.2668501298550015,-0.1196617873089635,0.07534954983073974,-1.432833368787355,-0.7797272278734677,-0.978272996750904,-0.9616795118971294,0.2615523411882739,0.041030814870231996,0.1545169875199069,-0.5875864237135501,-0.7254354406228053,-0.6746553530395308,3.0,1.0,27.0
0.47851574283074455,0.06905621580455724,0.2794111574556976,-1.432833368787355,-0.7797272278734677,-0.978272996750904,-0.9616795118971294,0.03745431257807417,-0.1787225301048136,-0.08454514259098284,-0.5875864237135501,-0.7107334129053287,-0.6592830453464795,2.0,1.0,27.0
0.16101732336713,-0.1196617873089635,0.034537228305747604,-1.432833368787355,-1.0632270534984727,-1.237640246939001,-1.2659448446898665,0.5467680139648917,0.5804253888998893,0.5022437222266556,-0.4666791967045408,-0.5637131357305631,-0.5363045838020689,2.0,1.0,27.0
-0.15648109609648456,-0.1196617873089635,-0.17972745970045756,0.3459215125172375,0.17386309468336694,-0.018614171054944537,0.06175842567844082,0.2615523411882739,0.021053238054318753,0.1545169875199069,-0.753833860850938,-0.9018597732325239,-0.8437507376630956,1.0,1.0,27.0
0.05518451687925848,0.06905621580455724,0.1161618713557319,-1.432833368787355,-0.6766363821916477,-0.874526096675665,-0.8510375726997705,0.28192488924374665,0.06100839168614522,0.1762499084390787,-0.6178132304658025,-0.7548394960577584,-0.7053999684256336,2.0,1.0,27.0
0.05518451687925848,-0.1196617873089635,-0.00933601733361758,-1.432833368787355,-1.0632270534984727,-1.2635769719578107,-1.2382843598905267,0.6486307542422554,0.4206047743725835,0.567442484984171,-0.4515657933284146,-0.5931171911655163,-0.5209322761090175,3.0,1.0,27.0
0.16101732336713,-0.025302785752203127,0.07534954983073974,-1.432833368787355,-0.6766363821916477,-0.874526096675665,-0.8233770879004307,0.28192488924374665,0.06100839168614522,0.1762499084390787,-0.6178132304658025,-0.7548394960577584,-0.7053999684256336,1.0,1.0,27.0
0.2668501298550015,0.06905621580455724,0.19472559029134026,-1.432833368787355,-0.4962274022484628,-0.692969021543997,-0.6574141791043924,0.07819940868901958,-0.13876737647298715,-0.04107930075263925,-0.663153440594181,-0.798945579210188,-0.7361445838117363,2.0,1.0,27.0
-0.3681467090722276,-0.30837979042248426,-0.3501189020672975,0.3459215125172375,1.900634759853851,1.719146405205306,1.9150109072342032,0.28192488924374665,0.021053238054318753,0.1545169875199069,-0.496906003456793,-0.637223274317946,-0.5824215068812227,3.0,1.0,27.0
0.16101732336713,-0.1196617873089635,0.02433414792450029,-1.432833368787355,-1.0632270534984727,-1.2635769719578107,-1.2382843598905267,0.6486307542422554,0.4206047743725835,0.567442484984171,-0.4515657933284146,-0.5931171911655163,-0.5363045838020689,3.0,1.0,27.0
-0.26231390258435605,-0.025302785752203127,-0.09504189253610022,-1.432833368787355,-1.0632270534984727,-1.2635769719578107,-1.2382843598905267,0.9134738789634005,0.7002908497953687,0.8499704569334043,-0.3759987764477837,-0.5196070525781334,-0.45944304533681213,2.0,1.0,27.0
-0.26231390258435605,-0.4027387919792446,-0.3664438306772938,0.3459215125172375,1.900634759853851,1.7450831302241157,1.9426713920335428,0.2615523411882739,0.041030814870231996,0.1545169875199069,-0.496906003456793,-0.6078192188829928,-0.5824215068812227,2.0,1.0,27.0
0.2668501298550015,-0.025302785752203127,0.1263649517369792,-1.432833368787355,-1.0632270534984727,-1.2635769719578107,-1.2382843598905267,0.6486307542422554,0.4206047743725835,0.567442484984171,-0.4515657933284146,-0.5931171911655163,-0.5363045838020689,2.0,1.0,27.0
-0.26231390258435605,0.16341521736131762,-0.06035141923985704,-1.432833368787355,-0.4704546908280078,-0.6670322965251875,-0.602093209505713,-0.06440842769928935,-0.298587991000293,-0.19320974718684178,-0.6480400372180548,-0.7842435514927115,-0.7361445838117363,2.0,1.0,27.0
0.16101732336713,-0.21402078886572387,-0.02668125398173917,-1.432833368787355,-1.0632270534984727,-1.2635769719578107,-1.2659448446898665,0.6486307542422554,0.4206047743725835,0.567442484984171,-0.4515657933284146,-0.5931171911655163,-0.5209322761090175,2.0,1.0,27.0
-0.26231390258435605,-0.497097793536005,-0.401134303973537,0.3459215125172375,1.5140440885470265,1.3300955299231605,1.527764120043447,-0.08478097575476208,-0.31856556781620626,-0.2149426681060136,-0.6026998270896763,-0.7401374683402818,-0.6900276607325823,2.0,1.0,27.0
-0.050648289608613034,-0.21402078886572387,-0.16238222305233596,0.3459215125172375,1.900634759853851,1.719146405205306,1.9150109072342032,0.2615523411882739,0.021053238054318753,0.1327840666007351,-0.496906003456793,-0.637223274317946,-0.5824215068812227,2.0,1.0,27.0
0.2668501298550015,0.06905621580455724,0.19778651440571474,-1.432833368787355,-1.0632270534984727,-1.2635769719578107,-1.2382843598905267,0.6486307542422554,0.4206047743725835,0.567442484984171,-0.4515657933284146,-0.5931171911655163,-0.5363045838020689,3.0,1.0,27.0
-0.050648289608613034,-0.30837979042248426,-0.17972745970045756,-1.432833368787355,-0.7024090936121027,-0.9004628216944748,-0.8786980574991103,1.1783170036845456,0.9000666179545012,1.110765507963466,-0.42133898657616226,-0.5784151634480398,-0.5055599684159662,2.0,1.0,27.0
-0.15648109609648456,-0.4027387919792446,-0.2715551831316884,0.3459215125172375,1.5140440885470265,1.3300955299231605,1.5001036352441073,-0.08478097575476208,-0.31856556781620626,-0.2149426681060136,-0.6026998270896763,-0.7401374683402818,-0.6900276607325823,2.0,1.0,27.0
-0.26231390258435605,-0.025302785752203127,-0.10830589703172201,-1.432833368787355,-0.4962274022484628,-0.692969021543997,-0.6297536943050526,0.07819940868901958,-0.13876737647298715,-0.04107930075263925,-0.663153440594181,-0.798945579210188,-0.7515168915047876,2.0,1.0,27.0
0.37268293634287303,0.06905621580455724,0.22839575554945812,-1.432833368787355,-0.7797272278734677,-0.978272996750904,-0.9340190270977898,0.2615523411882739,0.06100839168614522,0.1545169875199069,-0.6026998270896763,-0.7254354406228053,-0.6746553530395308,3.0,1.0,27.0
-0.15648109609648456,-0.025302785752203127,-0.09504189253610022,-1.432833368787355,-0.4704546908280078,-0.6670322965251875,-0.602093209505713,-0.06440842769928935,-0.298587991000293,-0.19320974718684178,-0.678266843970307,-0.7842435514927115,-0.7361445838117363,2.0,1.0,27.0
-0.15648109609648456,1.012646231372161,0.46612752843253386,0.3459215125172375,1.2563169743424767,1.1485384547914925,1.2788197568493893,-0.24776136019854367,-0.4783861823435121,-0.3888060354593879,-0.6480400372180548,-0.7548394960577584,-0.7053999684256336,1.0,1.0,27.0
-0.3681467090722276,-0.497097793536005,-0.4858198711378943,0.3459215125172375,1.5655895113879366,1.38196897996078,1.5554246048427869,-0.5737221290861069,-0.7780498345822108,-0.7365327701661367,-0.4666791967045408,-0.6078192188829928,-0.5516768914951202,2.0,1.0,27.0
0.16101732336713,-0.1196617873089635,0.04167938457262188,-1.432833368787355,-0.7797272278734677,-0.978272996750904,-0.9340190270977898,0.2615523411882739,0.041030814870231996,0.1545169875199069,-0.5875864237135501,-0.7254354406228053,-0.6746553530395308,3.0,1.0,27.0
-0.15648109609648456,-0.497097793536005,-0.3327736654191759,0.3459215125172375,1.900634759853851,1.719146405205306,1.9426713920335428,0.28192488924374665,0.021053238054318753,0.1545169875199069,-0.496906003456793,-0.637223274317946,-0.5824215068812227,2.0,1.0,27.0
0.37268293634287303,0.06905621580455724,0.262065920807576,-1.432833368787355,-0.7797272278734677,-0.978272996750904,-0.9340190270977898,0.2615523411882739,0.041030814870231996,0.1545169875199069,-0.5875864237135501,-0.7254354406228053,-0.6746553530395308,3.0,1.0,27.0
-0.3681467090722276,-0.30837979042248426,-0.2991035001610581,0.3459215125172375,1.8748620484333964,1.7710198552429255,1.9150109072342032,0.24117979313280122,0.08098596850205846,0.1545169875199069,-0.5422462135851716,-0.5784151634480398,-0.5824215068812227,2.0,1.0,27.0
0.37268293634287303,0.06905621580455724,0.21105051890133653,-1.432833368787355,-0.7797272278734677,-0.978272996750904,-0.9340190270977898,0.2615523411882739,0.041030814870231996,0.1545169875199069,-0.5875864237135501,-0.7254354406228053,-0.6746553530395308,3.0,1.0,27.0
-0.050648289608613034,-0.025302785752203127,-0.06035141923985704,-1.432833368787355,-1.0632270534984727,-1.2635769719578107,-1.2382843598905267,0.6486307542422554,0.4206047743725835,0.567442484984171,-0.4515657933284146,-0.5931171911655163,-0.5209322761090175,3.0,1.0,27.0
-0.3681467090722276,-0.30837979042248426,-0.41745923258353324,0.3459215125172375,0.27695394036518695,0.0851327290202943,0.2000608496751395,-1.062663282417452,-1.297466831795955,-1.2798557931454315,1.8910117299711418,1.670995077325873,1.8464031086208885,2.0,1.0,27.0
0.584348549318616,0.4464922220315987,0.46612752843253386,-1.432833368787355,-0.8054999392939227,-1.0042097217697137,-0.9616795118971294,0.2615523411882739,0.021053238054318753,0.1327840666007351,-0.5875864237135501,-0.7254354406228053,-0.6592830453464795,2.0,1.0,27.0
-0.15648109609648456,0.35213322047483836,-0.1287120577942181,-1.432833368787355,-1.0632270534984727,-1.2635769719578107,-1.2382843598905267,0.9134738789634005,0.7002908497953687,0.8717033778525762,-0.3759987764477837,-0.5196070525781334,-0.45944304533681213,2.0,1.0,27.0
-0.26231390258435605,-0.30837979042248426,-0.3501189020672975,0.3459215125172375,1.900634759853851,1.719146405205306,1.9426713920335428,0.2615523411882739,0.021053238054318753,0.1545169875199069,-0.496906003456793,-0.637223274317946,-0.5824215068812227,2.0,1.0,27.0
0.16101732336713,-0.1196617873089635,0.02433414792450029,-1.432833368787355,-1.0632270534984727,-1.2635769719578107,-1.2382843598905267,0.6486307542422554,0.4206047743725835,0.567442484984171,-0.4515657933284146,-0.5931171911655163,-0.5363045838020689,3.0,1.0,27.0
-0.050648289608613034,-0.4027387919792446,-0.23074286160669702,0.3459215125172375,1.8748620484333964,1.719146405205306,1.9150109072342032,0.2615523411882739,0.021053238054318753,0.1327840666007351,-0.5120194068329191,-0.637223274317946,-0.5824215068812227,2.0,1.0,27.0
0.05518451687925848,0.06905621580455724,0.10901971508885762,-1.432833368787355,-0.4704546908280078,-0.692969021543997,-0.6297536943050526,0.07819940868901958,-0.15874495328890037,-0.06281222167181102,-0.663153440594181,-0.798945579210188,-0.7515168915047876,2.0,1.0,27.0
-0.26231390258435605,-0.4027387919792446,-0.3664438306772938,0.3459215125172375,1.5140440885470265,1.3300955299231605,1.5001036352441073,-0.08478097575476208,-0.31856556781620626,-0.2149426681060136,-0.6178132304658025,-0.7401374683402818,-0.6900276607325823,2.0,1.0,27.0
-0.050648289608613034,-0.21402078886572387,-0.07769665588797862,-1.432833368787355,-1.0632270534984727,-1.2635769719578107,-1.2382843598905267,0.6486307542422554,0.4206047743725835,0.567442484984171,-0.4515657933284146,-0.5931171911655163,-0.5209322761090175,3.0,1.0,27.0
0.16101732336713,-0.21402078886572387,-0.02668125398173917,-1.432833368787355,-0.7797272278734677,-0.978272996750904,-0.9340190270977898,0.2615523411882739,0.041030814870231996,0.1545169875199069,-0.5875864237135501,-0.7254354406228053,-0.6746553530395308,3.0,1.0,27.0
0.2668501298550015,0.06905621580455724,0.19472559029134026,-1.432833368787355,-0.7797272278734677,-0.978272996750904,-0.9616795118971294,0.2615523411882739,0.041030814870231996,0.1545169875199069,-0.5875864237135501,-0.7254354406228053,-0.6746553530395308,2.0,1.0,27.0
0.2668501298550015,-0.1196617873089635,0.07534954983073974,-1.432833368787355,-0.7797272278734677,-0.978272996750904,-0.9616795118971294,0.2615523411882739,0.041030814870231996,0.1545169875199069,-0.5875864237135501,-0.7254354406228053,-0.6746553530395308,2.0,1.0,27.0
-0.050648289608613034,0.257774218918078,0.07534954983073974,-1.432833368787355,-0.4704546908280078,-0.6670322965251875,-0.6297536943050526,0.07819940868901958,-0.15874495328890037,-0.06281222167181102,-0.663153440594181,-0.798945579210188,-0.7515168915047876,2.0,1.0,27.0
0.47851574283074455,0.06905621580455724,0.2794111574556976,-1.432833368787355,-0.8054999392939227,-0.978272996750904,-0.9616795118971294,0.2615523411882739,0.041030814870231996,0.1545169875199069,-0.5875864237135501,-0.7254354406228053,-0.6592830453464795,2.0,1.0,27.0
0.16101732336713,-0.1196617873089635,0.04167938457262188,-1.432833368787355,-0.7797272278734677,-0.978272996750904,-0.9340190270977898,0.2615523411882739,0.041030814870231996,0.1545169875199069,-0.5875864237135501,-0.7254354406228053,-0.6746553530395308,3.0,1.0,27.0
0.16101732336713,-0.1196617873089635,0.05494338906824368,-1.432833368787355,-1.0632270534984727,-1.2635769719578107,-1.2382843598905267,0.6486307542422554,0.4206047743725835,0.567442484984171,-0.4515657933284146,-0.5931171911655163,-0.5363045838020689,3.0,1.0,27.0
0.2668501298550015,0.06905621580455724,0.2181926751682108,-1.432833368787355,-1.0632270534984727,-1.2635769719578107,-1.2382843598905267,0.6486307542422554,0.4206047743725835,0.567442484984171,-0.4515657933284146,-0.5931171911655163,-0.5363045838020689,3.0,1.0,27.0
0.16101732336713,-0.1196617873089635,0.05800431318261816,-1.432833368787355,-1.0632270534984727,-1.2635769719578107,-1.2382843598905267,0.6486307542422554,0.4206047743725835,0.567442484984171,-0.4666791967045408,-0.5931171911655163,-0.5363045838020689,3.0,1.0,27.0
0.16101732336713,-0.1196617873089635,-0.006275093219243096,-1.432833368787355,-1.0632270534984727,-1.2635769719578107,-1.2382843598905267,0.526395465909419,0.30073931347710403,0.43704495946914024,-0.4666791967045408,-0.6078192188829928,-0.5516768914951202,2.0,1.0,27.0
-0.26231390258435605,-0.025302785752203127,0.014131067543252978,-1.432833368787355,-1.0632270534984727,-1.2635769719578107,-1.2382843598905267,0.9134738789634005,0.6803132729794555,0.8499704569334043,-0.3759987764477837,-0.5196070525781334,-0.45944304533681213,2.0,1.0,27.0
-0.050648289608613034,0.257774218918078,0.07534954983073974,-1.432833368787355,-0.4704546908280078,-0.6670322965251875,-0.6297536943050526,0.05782686063354686,-0.15874495328890037,-0.04107930075263925,-0.663153440594181,-0.798945579210188,-0.7515168915047876,2.0,1.0,27.0
0.37268293634287303,0.06905621580455724,0.262065920807576,-1.432833368787355,-0.7797272278734677,-0.978272996750904,-0.9340190270977898,0.2615523411882739,0.041030814870231996,0.1545169875199069,-0.5875864237135501,-0.7254354406228053,-0.6746553530395308,3.0,1.0,27.0
-0.26231390258435605,-0.497097793536005,-0.3837890673254154,0.3459215125172375,1.5140440885470265,1.3300955299231605,1.5001036352441073,-0.06440842769928935,-0.298587991000293,-0.2149426681060136,-0.6026998270896763,-0.7401374683402818,-0.6900276607325823,2.0,1.0,27.0
0.16101732336713,-0.025302785752203127,0.07534954983073974,-1.432833368787355,-0.7797272278734677,-0.978272996750904,-0.9340190270977898,0.2615523411882739,0.041030814870231996,0.1545169875199069,-0.5875864237135501,-0.7254354406228053,-0.6746553530395308,3.0,1.0,27.0
-0.050648289608613034,-0.4027387919792446,-0.23074286160669702,0.3459215125172375,1.900634759853851,1.719146405205306,1.9426713920335428,0.28192488924374665,0.021053238054318753,0.1545169875199069,-0.496906003456793,-0.637223274317946,-0.5824215068812227,3.0,1.0,27.0
-0.15648109609648456,-0.30837979042248426,-0.21339762495857542,0.3459215125172375,1.5913622228083917,1.4079057049795898,1.5830850896421265,-0.6144672251970523,-0.8379825650299504,-0.7799986120044802,-0.4364523899522884,-0.5784151634480398,-0.5209322761090175,2.0,1.0,27.0
0.2668501298550015,-0.025302785752203127,0.1569741928807226,0.3459215125172375,-0.9343634963961979,-1.0042097217697137,-1.0446609662951487,0.05782686063354686,0.08098596850205846,0.06758530384321973,-0.6329266338419286,-0.6225212466004695,-0.6592830453464795,0.0,0.0,15.0
6.087654486687935,5.9193143123237,6.459416944377545,3.9034312751264224,-1.8364083961121225,2.6528685058824557,-1.0723214510944885,-1.6942122721371056,2.718026108202606,0.8934362987717478,-1.4188236094004893,2.259076186024935,0.6012461854837302,0.0,0.0,15.0
0.2668501298550015,-0.025302785752203127,0.09575571059323582,0.3459215125172375,1.6944530684902113,1.5116526050548287,1.721387513638825,-1.0219181863065065,-1.237534101348215,-1.214657030387916,-0.17952453255814346,-0.3284806922509383,-0.24423073763409336,5.0,0.0,15.0
0.47851574283074455,0.257774218918078,0.40184812203067255,0.3459215125172375,-0.8054999392939227,-0.874526096675665,-0.8510375726997705,0.5671405620203644,0.640358119347629,0.5239766431458274,-0.6329266338419286,-0.7107334129053287,-0.6900276607325823,0.0,0.0,15.0
2.066007840148817,3.37162127029117,2.9658822218382674,0.3459215125172375,-2.4034080473621326,-0.3557915962994708,-1.0999819358938283,-1.7757024643589965,1.3395733079045924,0.26318159211576586,-0.7236070540986855,2.1855660474375527,1.4928400316807078,0.0,0.0,15.0
-0.26231390258435605,-0.30837979042248426,-0.2991035001610581,-1.432833368787355,0.07077224900154695,-0.12236107113018341,-0.021223028719578388,-1.6330946279706877,-1.8368614058256123,-1.86664465796307,1.2562487881738427,1.0829139686268108,1.2161384932057837,0.0,0.0,15.0
0.6901813558064875,0.7295692267018798,0.7048796093537348,0.3459215125172375,-2.686907872987137,-0.04455089607375427,-0.7680561183017514,-1.5923495318597423,0.9999545020340672,-0.8234644538428237,-0.6933802473464332,1.9797376593928806,0.770341570107295,0.0,0.0,15.0
-0.8973107415115852,-0.21402078886572387,-0.5541805096922553,0.3459215125172375,-0.9085907849757429,-0.8485893716568553,-1.0446609662951487,0.11894450479996498,0.08098596850205846,0.1327840666007351,-0.663153440594181,-0.6960313851878521,-0.6592830453464795,0.0,0.0,15.0
0.16101732336713,-0.21402078886572387,-0.02668125398173917,0.3459215125172375,-0.8312726507143777,-1.0301464467885233,-0.9893399966964692,0.526395465909419,0.28076173666119086,0.43704495946914024,-0.5875864237135501,-0.7107334129053287,-0.6592830453464795,0.0,0.0,15.0
0.9018469687822306,1.012646231372161,1.095657587955529,-1.432833368787355,0.019226826160636996,-0.04455089607375427,-0.021223028719578388,-1.6534671760261601,-1.7169959449301329,-1.86664465796307,1.2260219814215902,1.2446362735190528,1.2315108008988351,0.0,0.0,15.0
0.9018469687822306,0.8239282282586402,0.8069104131662138,0.3459215125172375,-0.5477728250893729,-0.7448424715816165,-0.7127351487030719,-0.06440842769928935,-0.25863283736846654,-0.19320974718684178,-0.663153440594181,-0.7842435514927115,-0.7361445838117363,5.0,0.0,15.0
-0.050648289608613034,0.06905621580455724,0.02433414792450029,0.3459215125172375,1.7202257799106664,1.5375893300736385,1.721387513638825,-1.0219181863065065,-1.237534101348215,-1.214657030387916,-0.16441112918201728,-0.3137786645334617,-0.24423073763409336,5.0,0.0,15.0
0.2668501298550015,-0.025302785752203127,0.08963386236448685,0.3459215125172375,1.7202257799106664,1.5375893300736385,1.721387513638825,-1.0015456382510337,-1.237534101348215,-1.214657030387916,-0.16441112918201728,-0.3137786645334617,-0.24423073763409336,5.0,0.0,15.0
0.47851574283074455,0.7295692267018798,0.7385497746118527,0.3459215125172375,-1.1405451877598376,-1.1079566218449526,-1.2106238750911873,-1.3886240513050152,-1.4173322926914342,-1.4754520814179777,0.9690941240274454,1.3475504675413887,1.2161384932057837,0.0,0.0,15.0
0.05518451687925848,-0.21402078886572387,-0.047087414744235244,0.3459215125172375,-2.094135510316672,-0.7707791966004263,-1.0723214510944885,-1.062663282417452,-0.03887949239342095,-0.06281222167181102,-0.678266843970307,0.2743024441656004,-0.5363045838020689,0.0,0.0,15.0
0.7960141622943591,0.6352102251451195,0.6701891360574916,0.3459215125172375,-0.5477728250893729,-0.7448424715816165,-0.7127351487030719,-0.06440842769928935,-0.25863283736846654,-0.19320974718684178,-0.663153440594181,-0.7842435514927115,-0.7361445838117363,5.0,0.0,15.0
0.16101732336713,0.06905621580455724,0.1916646661769658,0.3459215125172375,-0.6766363821916477,-0.874526096675665,-0.8510375726997705,0.1393170528554377,-0.058857069209334194,0.024119462004876132,-0.6329266338419286,-0.769541523775235,-0.7207722761186849,0.0,0.0,15.0
0.47851574283074455,0.06905621580455724,0.2794111574556976,0.3459215125172375,-0.7024090936121027,-0.874526096675665,-0.8510375726997705,0.5671405620203644,0.40062719755667026,0.5022437222266556,-0.6178132304658025,-0.7401374683402818,-0.6900276607325823,0.0,0.0,15.0
0.37268293634287303,0.5408512235883591,0.5242850866056475,0.3459215125172375,1.7202257799106664,1.5375893300736385,1.7490479984381648,-1.0219181863065065,-1.217556524532302,-1.214657030387916,-0.16441112918201728,-0.3137786645334617,-0.24423073763409336,5.0,0.0,15.0
0.47851574283074455,0.06905621580455724,0.2794111574556976,3.9034312751264224,-1.6302267047484826,0.13700617905791374,-0.9616795118971294,-2.3868789060231776,1.0998423861136335,0.002386541085704349,-1.1618957520063447,1.7298031881957792,-0.44407073764376076,0.0,0.0,15.0
-0.050648289608613034,-0.21402078886572387,-0.1113668211460965,-1.432833368787355,-0.03231859668027296,-0.22610797120542228,-0.13186496791693736,-1.6127220799152149,-1.8168838290096991,-1.8449117370438983,1.2713621915499689,1.0682119409093342,1.2161384932057837,0.0,0.0,15.0
-0.15648109609648456,0.06905621580455724,0.10901971508885762,0.3459215125172375,1.7202257799106664,1.5375893300736385,1.7490479984381648,-1.0015456382510337,-1.237534101348215,-1.214657030387916,-0.16441112918201728,-0.3137786645334617,-0.228858429941042,5.0,0.0,15.0
0.584348549318616,0.6352102251451195,0.6875343727056132,0.3459215125172375,-0.5477728250893729,-0.7448424715816165,-0.7127351487030719,-0.06440842769928935,-0.25863283736846654,-0.19320974718684178,-0.663153440594181,-0.7842435514927115,-0.7361445838117363,0.0,0.0,15.0
0.6901813558064875,0.5408512235883591,0.5855035688931344,0.3459215125172375,-0.5477728250893729,-0.7448424715816165,-0.7127351487030719,-0.06440842769928935,-0.25863283736846654,-0.17147682626767002,-0.663153440594181,-0.7842435514927115,-0.7361445838117363,5.0,0.0,15.0
1.3251781947337167,2.4280312547235665,1.5037808032054447,0.3459215125172375,-2.2487717788394024,3.3531600813903184,0.42134472806985745,-1.9998004929691964,1.479416345615985,0.002386541085704349,-0.9805349114928303,1.0682119409093342,-0.3057199684062988,0.0,0.0,15.0
0.9018469687822306,1.012646231372161,1.014032944905546,0.3459215125172375,1.7202257799106664,1.5375893300736385,1.721387513638825,-1.0219181863065065,-1.237534101348215,-1.214657030387916,-0.16441112918201728,-0.3137786645334617,-0.228858429941042,5.0,0.0,15.0
0.6901813558064875,0.4464922220315987,0.5712192563593872,0.3459215125172375,1.7202257799106664,1.5375893300736385,1.721387513638825,-1.0015456382510337,-1.237534101348215,-1.214657030387916,-0.16441112918201728,-0.3137786645334617,-0.24423073763409336,5.0,0.0,15.0
-0.050648289608613034,-0.025302785752203127,-0.06035141923985704,0.3459215125172375,1.7202257799106664,1.5116526050548287,1.721387513638825,-1.0219181863065065,-1.237534101348215,-1.214657030387916,-0.16441112918201728,-0.3137786645334617,-0.24423073763409336,5.0,0.0,15.0
0.2668501298550015,0.9182872298154006,0.33042655936193704,0.3459215125172375,-0.7281818050325577,-0.8485893716568553,-0.8510375726997705,0.5467680139648917,0.38064962074075703,0.5022437222266556,-0.6178132304658025,-0.7254354406228053,-0.6900276607325823,0.0,0.0,15.0
0.2668501298550015,1.8618772453830044,1.1803431551198862,0.3459215125172375,-1.4755904362257526,2.1341340055062616,0.36602375847117796,-1.8979377526918328,1.9788557660138157,0.35011327579245305,-0.9351947013644522,0.5683429985151315,-0.5824215068812227,0.0,0.0,15.0
0.47851574283074455,0.4464922220315987,0.4977570776144025,0.3459215125172375,-0.7024090936121027,-0.8485893716568553,-0.8233770879004307,0.1393170528554377,-0.01890191557750772,0.04585238292404793,-0.663153440594181,-0.769541523775235,-0.7207722761186849,0.0,0.0,15.0
1.4310110012215882,4.126493282745253,1.973122500742847,0.3459215125172375,-1.7848629732712125,2.2378809055815005,1.8320294528361842,-0.04403587964381663,2.1786315341729487,0.3935791176307966,-0.5422462135851716,0.5683429985151315,-0.3057199684062988,0.0,0.0,15.0
1.9601750336609458,4.315211285858774,4.139236465681775,2.12467639382183,-0.6508636707711927,0.655740679434108,0.06175842567844082,1.7894934453487266,2.258541841436601,2.1974115539220556,0.09251672821212759,0.4948328599277487,0.3552892623949088,0.0,0.0,15.0
