Min_hr,Max_hr,Mean_hr,Men_acc_sqrt,Min_acc_x,Max_acc_x,Mean_acc_x,Min_acc_y,Max_acc_y,Mean_acc_y,Min_acc_z,Max_acc_z,Mean_acc_z,Etiquetas multiclase,Etiquetas binarias,ID
1.994731136511705,2.4875865510933823,2.0795575886226794,0.5255247386503538,-0.5963957539513288,-0.12403547547264687,-0.4535749440398847,1.8660556244115387,2.1299097593942604,2.1121275718772745,0.6142026131512668,1.536003853620955,1.1417445999162152,0.0,0.0,12.0
1.3833713466732802,1.6575071532219288,1.3683062997339328,0.5255247386503538,0.21699867454476163,0.31751103960565485,0.192449092142196,0.778449123878859,0.9625016248373975,0.8444750301156416,-0.7465605666261261,-0.6390888435614015,-0.7608077813855438,0.0,0.0,12.0
2.504197628043726,2.0264313300536863,2.3235562946720134,2.480965626651705,-1.1854055125174634,2.3320670146504066,-0.042468739196742426,0.9666887105095151,2.782866851604031,1.9832137540710069,-0.7782062219697864,1.4583219715787281,0.518219029573622,0.0,0.0,12.0
1.6890512415924928,1.4730450648060502,1.6083536097338853,0.5255247386503538,-0.34396300028012844,-0.12403547547264687,-0.3361160283704154,-0.41373492478196283,0.9427150462855863,-0.18683551233450058,2.1648397249906215,2.235140792000998,2.1969417189575275,0.0,0.0,12.0
2.0966244348181093,1.6575071532219288,1.8790242391165468,0.5255247386503538,-0.17567449783266142,-0.34480873301179776,-0.2773865705356809,-0.45556594403321965,-0.6006380807556899,-0.5735769657533039,2.212308208006112,2.064240651508099,2.1809538838205373,0.0,0.0,12.0
2.1985177331245134,1.8419692416378075,2.076594041585643,0.5255247386503538,-0.20372258157390596,-0.34480873301179776,-0.2773865705356809,-0.45556594403321965,-0.6006380807556899,-0.5520913294522592,2.212308208006112,2.064240651508099,2.1809538838205373,0.0,0.0,12.0
2.3004110314309174,2.85651072792514,2.6920239762768783,0.5255247386503538,-0.20372258157390596,-0.20682544704982844,-0.21865711270094623,-0.5810590017869904,-0.2246930882712764,-0.5306056931512146,2.1648397249906215,2.1729952863672164,2.1969417189575275,0.0,0.0,12.0
2.0966244348181093,1.9342002858457468,1.977809140351095,0.5255247386503538,-0.17567449783266142,-0.28961541862701,-0.24802184161831356,-0.3719039055307059,-0.5214917665484449,-0.4661487842480807,2.2281310356779422,2.0953134043249895,2.2129295540945164,0.0,0.0,12.0
1.892837838205301,1.4730450648060502,1.6814544366474504,0.5255247386503538,-0.1476264140914169,-0.28961541862701,-0.24802184161831356,-0.4346504344075913,-0.5808515022038786,-0.5306056931512146,2.2281310356779422,2.079777027916544,2.1969417189575275,0.0,0.0,12.0
1.6890512415924928,1.2885829763901717,1.5490826689931556,0.5255247386503538,-0.1476264140914169,-0.28961541862701,-0.24802184161831356,-0.3928194151563344,-0.5214917665484449,-0.50912005685017,2.2281310356779422,2.079777027916544,2.2129295540945164,2.0,1.0,12.0
1.7909445398988968,1.7497381974298682,1.796044922079526,0.5255247386503538,-0.17567449783266142,-0.31721207581940386,-0.24802184161831356,-0.18366431890004983,-0.3434125595821438,-0.2942636938397237,2.2755995186934324,2.1263861571418805,2.2608930595054852,2.0,1.0,12.0
1.6890512415924928,1.5652761090139895,1.615268552820303,0.5255247386503538,-0.17567449783266142,-0.31721207581940386,-0.2773865705356809,-0.16274880927442137,-0.32362598103033263,-0.27277805753867906,2.2755995186934324,2.1263861571418805,2.2608930595054852,2.0,1.0,12.0
1.5871579432860885,1.380814020598111,1.5490826689931556,0.5255247386503538,-0.17567449783266142,-0.31721207581940386,-0.2773865705356809,-0.16274880927442137,-0.3434125595821438,-0.27277805753867906,2.2755995186934324,2.1263861571418805,2.2608930595054852,2.0,1.0,12.0
2.0966244348181093,1.6575071532219288,1.9284166897338209,0.5255247386503538,-0.17567449783266142,-0.31721207581940386,-0.2773865705356809,-0.16274880927442137,-0.32362598103033263,-0.25129242123763446,2.2755995186934324,2.1263861571418805,2.2608930595054852,3.0,1.0,12.0
1.892837838205301,1.6575071532219288,1.8424738256597635,0.5255247386503538,-0.17567449783266142,-0.31721207581940386,-0.2773865705356809,-0.100002280397536,-0.2642662453748989,-0.20832114863554516,2.2914223463652625,2.1419225335503254,2.2608930595054852,3.0,1.0,12.0
2.0966244348181093,1.6575071532219288,1.8790242391165468,0.5255247386503538,-0.17567449783266142,-0.34480873301179776,-0.2773865705356809,0.004575267730606243,-0.18511993116765396,-0.10089296713032204,2.3072451740370927,2.1574589099587715,2.276880894642475,3.0,1.0,12.0
2.0966244348181093,1.7497381974298682,1.9442222739313482,0.5255247386503538,-0.17567449783266142,-0.34480873301179776,-0.2773865705356809,0.004575267730606243,-0.16533335261584273,-0.0794073308292774,2.3072451740370927,2.1574589099587715,2.276880894642475,3.0,1.0,12.0
2.0966244348181093,1.6575071532219288,1.9017447664004932,0.5255247386503538,-0.17567449783266142,-0.34480873301179776,-0.2773865705356809,0.004575267730606243,-0.16533335261584273,-0.0794073308292774,2.3072451740370927,2.1574589099587715,2.276880894642475,3.0,1.0,12.0
2.0966244348181093,1.7497381974298682,1.9610157071412215,0.5255247386503538,-0.17567449783266142,-0.34480873301179776,-0.2773865705356809,0.025490777356234715,-0.16533335261584273,-0.0794073308292774,2.3072451740370927,2.1574589099587715,2.276880894642475,3.0,1.0,12.0
2.0966244348181093,1.6575071532219288,1.9442222739313482,0.5255247386503538,-0.17567449783266142,-0.34480873301179776,-0.2773865705356809,0.004575267730606243,-0.16533335261584273,-0.0794073308292774,2.3072451740370927,2.1574589099587715,2.276880894642475,3.0,1.0,12.0
2.1985177331245134,1.7497381974298682,1.9936147245486222,0.5255247386503538,-0.17567449783266142,-0.34480873301179776,-0.2773865705356809,0.025490777356234715,-0.14554677406403146,-0.0794073308292774,2.3072451740370927,2.1574589099587715,2.276880894642475,3.0,1.0,12.0
1.994731136511705,1.6575071532219288,1.9215017466474018,0.5255247386503538,-0.17567449783266142,-0.31721207581940386,-0.2773865705356809,0.025490777356234715,-0.16533335261584273,-0.0794073308292774,2.3072451740370927,2.1574589099587715,2.276880894642475,3.0,1.0,12.0
1.0776914517540679,1.104120887974293,1.1213440466475624,0.5255247386503538,0.07675825583853915,-0.06884216108785918,-0.0131040102793751,-0.14183329964879293,-0.30383940247852137,-0.25129242123763446,2.323068001708923,2.1574589099587715,2.2928687297794643,0.0,0.0,12.0
1.6890512415924928,1.380814020598111,1.5826695354129023,0.5255247386503538,0.07675825583853915,-0.06884216108785918,-0.0131040102793751,-0.14183329964879293,-0.30383940247852137,-0.25129242123763446,2.323068001708923,2.1729952863672164,2.2928687297794643,2.0,1.0,12.0
1.7909445398988968,1.4730450648060502,1.664661003437577,0.5255247386503538,0.07675825583853915,-0.06884216108785918,0.016260718637992146,-0.14183329964879293,-0.30383940247852137,-0.25129242123763446,2.323068001708923,2.1574589099587715,2.2928687297794643,3.0,1.0,12.0
1.994731136511705,1.5652761090139895,1.796044922079526,0.5255247386503538,0.07675825583853915,-0.06884216108785918,0.016260718637992146,-0.16274880927442137,-0.32362598103033263,-0.25129242123763446,2.323068001708923,2.1729952863672164,2.2928687297794643,3.0,1.0,12.0
1.3833713466732802,1.2885829763901717,1.3850997329438062,0.5255247386503538,1.9559798665019208,1.8077305279949232,1.9836975561016013,-0.058171261146279116,-0.2246930882712764,-0.16534987603345594,-0.5566866345641643,-0.6546252199698469,-0.6009294300156481,5.0,0.0,12.0
2.1985177331245134,2.303124462677504,2.274163844054739,0.5255247386503538,1.9279317827606763,1.7801338708025294,1.954332827184234,-0.058171261146279116,-0.2246930882712764,-0.14386423973241128,-0.5725094622359945,-0.6546252199698469,-0.6169172651526377,5.0,0.0,12.0
2.0966244348181093,2.3953555068854433,2.4154262528201422,0.5255247386503538,1.8998836990194317,1.7525372136101356,1.9249680982668667,-0.058171261146279116,-0.2246930882712764,-0.14386423973241128,-0.5725094622359945,-0.6546252199698469,-0.6169172651526377,5.0,0.0,12.0
2.707984224656534,2.579817595301322,2.6199109983756577,0.5255247386503538,1.8998836990194317,1.7525372136101356,1.9249680982668667,-0.058171261146279116,-0.2246930882712764,-0.14386423973241128,-0.5725094622359945,-0.6701615963782923,-0.6169172651526377,5.0,0.0,12.0
2.0966244348181093,2.3953555068854433,2.1980994701041374,0.5255247386503538,1.8998836990194317,1.7525372136101356,1.8956033693494994,-0.058171261146279116,-0.20490650971946522,-0.14386423973241128,-0.5725094622359945,-0.6546252199698469,-0.6329051002896273,5.0,0.0,12.0
1.3833713466732802,1.6575071532219288,1.5263621417092093,0.5255247386503538,1.8718356152781872,1.7249405564177416,1.8956033693494994,-0.037255751520650644,-0.20490650971946522,-0.14386423973241128,-0.5883322899078247,-0.6701615963782923,-0.6329051002896273,5.0,0.0,12.0
1.5871579432860885,1.5652761090139895,1.6478675702277037,0.5255247386503538,1.8718356152781872,1.7249405564177416,1.8956033693494994,-0.058171261146279116,-0.16533335261584273,-0.1223786034313667,-0.5883322899078247,-0.6701615963782923,-0.6329051002896273,5.0,0.0,12.0
1.7909445398988968,1.6575071532219288,1.7802393378819985,0.5255247386503538,1.8718356152781872,1.7249405564177416,1.8956033693494994,-0.058171261146279116,-0.18511993116765396,-0.1223786034313667,-0.5883322899078247,-0.6701615963782923,-0.6329051002896273,5.0,0.0,12.0
1.2814780483668762,1.2885829763901717,1.3258287922030763,0.5255247386503538,1.8437875315369427,1.7249405564177416,1.8662386404321323,-0.01634024189502223,-0.18511993116765396,-0.1223786034313667,-0.5883322899078247,-0.6856979727867378,-0.6488929354266169,5.0,0.0,12.0
1.2814780483668762,1.4730450648060502,1.3850997329438062,0.5255247386503538,1.8718356152781872,1.7249405564177416,1.8662386404321323,-0.01634024189502223,-0.18511993116765396,-0.1223786034313667,-0.5883322899078247,-0.6856979727867378,-0.6488929354266169,5.0,0.0,12.0
1.4852646449796845,1.6575071532219288,1.664661003437577,0.5255247386503538,1.8437875315369427,1.6973438992253478,1.8662386404321323,-0.01634024189502223,-0.18511993116765396,-0.1223786034313667,-0.5883322899078247,-0.6856979727867378,-0.6488929354266169,5.0,0.0,12.0
1.4852646449796845,1.6575071532219288,1.664661003437577,0.5255247386503538,1.8437875315369427,1.6973438992253478,1.8662386404321323,-0.01634024189502223,-0.18511993116765396,-0.1223786034313667,-0.5883322899078247,-0.6856979727867378,-0.6488929354266169,2.0,1.0,12.0
1.4852646449796845,1.380814020598111,1.4009053171413335,0.5255247386503538,1.8437875315369427,1.6973438992253478,1.8662386404321323,-0.01634024189502223,-0.18511993116765396,-0.1223786034313667,-0.6041551175796548,-0.6856979727867378,-0.6488929354266169,2.0,1.0,12.0
1.6890512415924928,1.4730450648060502,1.5826695354129023,0.5255247386503538,1.8437875315369427,1.6973438992253478,1.8662386404321323,-0.01634024189502223,-0.16533335261584273,-0.10089296713032204,-0.5883322899078247,-0.6856979727867378,-0.6488929354266169,2.0,1.0,12.0
1.179584750060472,1.2885829763901717,1.3189138491166585,0.5255247386503538,1.8437875315369427,1.7249405564177416,1.8662386404321323,-0.01634024189502223,-0.16533335261584273,-0.10089296713032204,-0.6041551175796548,-0.6856979727867378,-0.6488929354266169,2.0,1.0,12.0
1.7909445398988968,1.5652761090139895,1.7308468872647245,0.5255247386503538,1.8437875315369427,1.6973438992253478,1.8662386404321323,-0.01634024189502223,-0.16533335261584273,-0.10089296713032204,-0.5883322899078247,-0.6856979727867378,-0.6488929354266169,2.0,1.0,12.0
1.7909445398988968,1.6575071532219288,1.7634459046721254,0.5255247386503538,1.8437875315369427,1.7249405564177416,1.8662386404321323,-0.16274880927442137,-0.16533335261584273,-0.10089296713032204,-0.730737738954296,-0.5303342087022838,-0.6488929354266169,2.0,1.0,12.0
2.0966244348181093,1.6575071532219288,1.8819877861535832,0.5255247386503538,1.8437875315369427,1.6973438992253478,1.836873911514765,-0.01634024189502223,-0.16533335261584273,-0.10089296713032204,-0.6041551175796548,-0.6856979727867378,-0.6488929354266169,3.0,1.0,12.0
2.0966244348181093,1.7497381974298682,1.9412587268943116,0.5255247386503538,1.8437875315369427,1.6973438992253478,1.8662386404321323,0.004575267730606243,-0.16533335261584273,-0.10089296713032204,-0.6041551175796548,-0.6856979727867378,-0.6488929354266169,3.0,1.0,12.0
1.892837838205301,1.7497381974298682,1.8790242391165468,0.5255247386503538,1.8157394477956983,1.6697472420329538,1.836873911514765,0.004575267730606243,-0.16533335261584273,-0.10089296713032204,-0.6041551175796548,-0.7012343491951832,-0.6488929354266169,3.0,1.0,12.0
1.892837838205301,1.6575071532219288,1.8128383552893994,0.5255247386503538,1.8437875315369427,1.7249405564177416,1.836873911514765,0.004575267730606243,-0.16533335261584273,-0.10089296713032204,-0.619977945251485,-0.7012343491951832,-0.6488929354266169,3.0,1.0,12.0
1.6890512415924928,1.5652761090139895,1.6449040231906673,0.5255247386503538,1.8157394477956983,1.6697472420329538,1.836873911514765,0.004575267730606243,-0.16533335261584273,-0.10089296713032204,-0.6041551175796548,-0.7012343491951832,-0.6488929354266169,3.0,1.0,12.0
1.7909445398988968,1.6575071532219288,1.7239319441783054,0.5255247386503538,1.8157394477956983,1.6697472420329538,1.836873911514765,0.004575267730606243,-0.16533335261584273,-0.10089296713032204,-0.6041551175796548,-0.7012343491951832,-0.6488929354266169,3.0,1.0,12.0
1.7909445398988968,1.5652761090139895,1.746652471462252,0.5255247386503538,1.8157394477956983,1.6697472420329538,1.836873911514765,0.004575267730606243,-0.16533335261584273,-0.10089296713032204,-0.6041551175796548,-0.7012343491951832,-0.6488929354266169,3.0,1.0,12.0
1.892837838205301,1.5652761090139895,1.796044922079526,0.5255247386503538,1.8157394477956983,1.6697472420329538,1.836873911514765,-0.01634024189502223,-0.14554677406403146,-0.0794073308292774,-0.6041551175796548,-0.6856979727867378,-0.6488929354266169,3.0,1.0,12.0
1.892837838205301,1.4730450648060502,1.6814544366474504,0.5255247386503538,1.8157394477956983,1.6697472420329538,1.836873911514765,0.004575267730606243,-0.14554677406403146,-0.0794073308292774,-0.6041551175796548,-0.7012343491951832,-0.6648807705636065,3.0,1.0,12.0
1.7909445398988968,1.4730450648060502,1.6814544366474504,0.5255247386503538,1.8157394477956983,1.6697472420329538,1.836873911514765,0.004575267730606243,-0.14554677406403146,-0.0794073308292774,-0.6041551175796548,-0.7012343491951832,-0.6648807705636065,3.0,1.0,12.0
1.7909445398988968,1.4730450648060502,1.6814544366474504,0.5255247386503538,1.8157394477956983,1.6697472420329538,1.836873911514765,0.004575267730606243,-0.16533335261584273,-0.0794073308292774,-0.6041551175796548,-0.7012343491951832,-0.6648807705636065,3.0,1.0,12.0
1.6890512415924928,1.4730450648060502,1.5490826689931556,0.5255247386503538,1.8157394477956983,1.6697472420329538,1.836873911514765,0.004575267730606243,-0.16533335261584273,-0.0794073308292774,-0.6041551175796548,-0.7012343491951832,-0.6648807705636065,3.0,1.0,12.0
1.6890512415924928,1.2885829763901717,1.516483651585755,0.5255247386503538,1.8157394477956983,1.6697472420329538,1.836873911514765,0.004575267730606243,-0.16533335261584273,-0.0794073308292774,-0.6041551175796548,-0.7012343491951832,-0.6648807705636065,3.0,1.0,12.0
1.4852646449796845,1.2885829763901717,1.4344921835610802,0.5255247386503538,1.8157394477956983,1.6697472420329538,1.836873911514765,0.004575267730606243,-0.14554677406403146,-0.0794073308292774,-0.6041551175796548,-0.7012343491951832,-0.6648807705636065,3.0,1.0,12.0
0.46633166191564307,1.104120887974293,0.5286346392402735,0.5255247386503538,-0.652491921433818,-0.7587585908977056,-0.7472222332135576,1.3431678837708272,1.1207942532518875,1.2956733924375787,-0.36681270250220255,-0.4681887030685021,-0.42506324350876284,2.0,1.0,12.0
0.7720115568348555,0.3662725343107787,0.5780270898575476,0.5255247386503538,-0.54029958646884,-0.6483719621281302,-0.6297633175440884,1.5314074704014833,1.3186600387699998,1.4890441191469803,-0.30352139181488186,-0.3905068210262752,-0.3451240678238149,2.0,1.0,12.0
1.0776914517540679,0.9196587995584145,1.0433039746722688,0.5255247386503538,-0.6244438376925734,-0.5931786477433424,-0.6003985886267211,1.3222523741451988,1.3780197744254337,1.510529755448025,-0.35098987483037236,-0.34389769180093893,-0.3451240678238149,2.0,1.0,12.0
0.8739048551412596,1.0118898437663537,1.0393525786228877,0.5255247386503538,-0.007385995385194351,-0.013648846703071415,0.04562544755535947,-1.8150740696990693,-1.8076193724161749,-1.9271720527191154,0.8357222005568888,0.8213305388324664,0.8539635674504031,1.0,1.0,12.0
1.3833713466732802,1.6575071532219288,1.5332770847956283,0.5255247386503538,0.13285442332102812,-0.013648846703071415,0.04562544755535947,-1.7941585600734407,-1.8669791080716087,-1.9486576890201601,0.7724308898695682,0.6970395275649033,0.7420487214914759,5.0,0.0,12.0
1.4852646449796845,1.2885829763901717,1.3683062997339328,0.5255247386503538,1.5913547778657422,1.4489739844938032,1.6019560801758264,0.5274630083713175,0.3293311111794381,0.4362479403957937,-0.6674464282669754,-0.7633798548289649,-0.7128442759745752,5.0,0.0,12.0
1.2814780483668762,1.104120887974293,1.2527279652895111,0.5255247386503538,1.5913547778657422,1.4213773273014092,1.572591351258459,0.5274630083713175,0.3293311111794381,0.4362479403957937,-0.6674464282669754,-0.7633798548289649,-0.7288321111115648,5.0,0.0,12.0
0.5682249602220472,0.6429656669345966,0.6106261072649484,0.5255247386503538,1.5913547778657422,1.4213773273014092,1.572591351258459,0.506547498745689,0.3095445326276269,0.4362479403957937,-0.6674464282669754,-0.7633798548289649,-0.7288321111115648,5.0,0.0,12.0
0.6701182585284513,1.0118898437663537,0.8081959097340446,0.5255247386503538,1.5633066941244977,1.3937806701090154,1.572591351258459,0.506547498745689,0.3095445326276269,0.4362479403957937,-0.6674464282669754,-0.7633798548289649,-0.7288321111115648,5.0,0.0,12.0
0.5682249602220472,0.7351967111425359,0.6106261072649484,0.5255247386503538,1.5633066941244977,1.4489739844938032,1.572591351258459,0.48563198912006067,0.3095445326276269,0.414762304094749,-0.6674464282669754,-0.7633798548289649,-0.7288321111115648,5.0,0.0,12.0
0.2625450653028348,0.8274277553504752,0.6936054243019691,0.5255247386503538,1.5633066941244977,1.4213773273014092,1.572591351258459,0.48563198912006067,0.28975795407581567,0.414762304094749,-0.6674464282669754,-0.7633798548289649,-0.7288321111115648,5.0,0.0,12.0
0.3644383636092389,1.4730450648060502,0.7588034591167705,0.5255247386503538,1.5913547778657422,1.4213773273014092,1.572591351258459,0.48563198912006067,0.28975795407581567,0.414762304094749,-0.6674464282669754,-0.7633798548289649,-0.7288321111115648,5.0,0.0,12.0
0.46633166191564307,0.8274277553504752,0.6768119910920958,0.5255247386503538,1.5633066941244977,1.3937806701090154,1.572591351258459,0.48563198912006067,0.28975795407581567,0.3932766677937044,-0.6674464282669754,-0.7633798548289649,-0.7288321111115648,5.0,0.0,12.0
0.2625450653028348,1.104120887974293,0.44664317121559877,2.480965626651705,0.3291910095097397,1.476570641686197,1.278944062084786,-0.16274880927442137,2.189269495049694,0.3073341225895259,-1.2370682244528608,0.7591850331986848,-0.7448199462485542,0.0,0.0,12.0
0.3644383636092389,0.1818104458949001,0.22536499245021147,0.5255247386503538,1.4791624429007642,1.3109906985318336,1.4551324355889899,0.23464587361251923,0.05231901145408085,0.13544903218116885,-0.6990920836106357,-0.7944526076458556,-0.7608077813855438,2.0,1.0,12.0
0.2625450653028348,-0.0026516425209784644,0.133495034302081,0.5255247386503538,1.4791624429007642,1.3109906985318336,1.4551324355889899,0.2137303639868908,0.03253243290226961,0.11396339588012425,-0.6990920836106357,-0.7944526076458556,-0.7608077813855438,2.0,1.0,12.0
0.05875846869002652,-0.18711373093685704,-0.04728133495714191,0.5255247386503538,-1.1293093450349743,-1.2554984203607948,-1.275787353726169,-0.037255751520650644,-0.18511993116765396,-0.1223786034313667,-0.44592684086135337,-0.5458705851107292,-0.5050024191937108,2.0,1.0,12.0
0.3644383636092389,0.2740414901028394,0.33106483677117726,0.5255247386503538,-1.1293093450349743,-1.2554984203607948,-1.275787353726169,-0.01634024189502223,-0.18511993116765396,-0.1223786034313667,-0.44592684086135337,-0.5458705851107292,-0.5050024191937108,2.0,1.0,12.0
0.3644383636092389,0.2740414901028394,0.2984658193637766,0.5255247386503538,-1.1293093450349743,-1.227901763168401,-1.2464226248088017,-0.037255751520650644,-0.16533335261584273,-0.10089296713032204,-0.4617496685331835,-0.5458705851107292,-0.5050024191937108,2.0,1.0,12.0
0.3644383636092389,0.1818104458949001,0.2816723861539032,0.5255247386503538,-1.1293093450349743,-1.2554984203607948,-1.2464226248088017,-0.01634024189502223,-0.16533335261584273,-0.10089296713032204,-0.4617496685331835,-0.5458705851107292,-0.5050024191937108,2.0,1.0,12.0
0.46633166191564307,0.45850357851871804,0.4792421886229995,0.5255247386503538,-1.1293093450349743,-1.227901763168401,-1.2464226248088017,-0.01634024189502223,-0.16533335261584273,-0.10089296713032204,-0.4617496685331835,-0.5458705851107292,-0.5050024191937108,2.0,1.0,12.0
0.6701182585284513,0.45850357851871804,0.5780270898575476,0.5255247386503538,-1.1293093450349743,-1.227901763168401,-1.2464226248088017,-0.01634024189502223,-0.16533335261584273,-0.10089296713032204,-0.4617496685331835,-0.5458705851107292,-0.5050024191937108,2.0,1.0,12.0
0.7720115568348555,0.7351967111425359,0.6965689713390056,0.5255247386503538,-1.1293093450349743,-1.227901763168401,-1.2464226248088017,-0.01634024189502223,-0.16533335261584273,-0.10089296713032204,-0.4617496685331835,-0.5614069615191746,-0.5050024191937108,2.0,1.0,12.0
0.9757981534476637,0.5507346227266573,0.7755968923266439,0.5255247386503538,-1.1293093450349743,-1.227901763168401,-1.2464226248088017,0.004575267730606243,-0.16533335261584273,-0.0794073308292774,-0.4617496685331835,-0.5458705851107292,-0.5050024191937108,2.0,1.0,12.0
1.0776914517540679,0.8274277553504752,0.9593368086229034,0.5255247386503538,-1.1293093450349743,-1.2554984203607948,-1.2464226248088017,0.004575267730606243,-0.16533335261584273,-0.0794073308292774,-0.4617496685331835,-0.5614069615191746,-0.5050024191937108,2.0,1.0,12.0
1.179584750060472,0.8274277553504752,1.0393525786228877,0.5255247386503538,-1.1293093450349743,-1.2554984203607948,-1.2464226248088017,0.004575267730606243,-0.16533335261584273,-0.0794073308292774,-0.4617496685331835,-0.5614069615191746,-0.5050024191937108,3.0,1.0,12.0
1.2814780483668762,1.0118898437663537,1.1381374798574357,0.5255247386503538,-1.1293093450349743,-1.227901763168401,-1.2464226248088017,0.004575267730606243,-0.16533335261584273,-0.0794073308292774,-0.4617496685331835,-0.5614069615191746,-0.5050024191937108,3.0,1.0,12.0
1.179584750060472,0.9196587995584145,1.0393525786228877,0.5255247386503538,-0.4561553352451064,-0.5931786477433424,-0.5710338597093538,-0.2254953381513067,-0.4027722952375775,-0.33723496644181294,2.212308208006112,2.064240651508099,2.1969417189575275,1.0,1.0,12.0
1.179584750060472,1.104120887974293,1.1509795170179264,0.5255247386503538,-0.4561553352451064,-0.5931786477433424,-0.5710338597093538,-0.18366431890004983,-0.36319913813395505,-0.2942636938397237,2.212308208006112,2.079777027916544,2.1969417189575275,2.0,1.0,12.0
0.9757981534476637,0.8274277553504752,0.9899601280056135,0.5255247386503538,-0.42810725150386186,-0.5931786477433424,-0.5416691307919865,-0.18366431890004983,-0.3434125595821438,-0.2942636938397237,2.2281310356779422,2.079777027916544,2.1969417189575275,2.0,1.0,12.0
1.0776914517540679,0.9196587995584145,1.0887450292401617,0.5255247386503538,-0.42810725150386186,-0.5655819905509485,-0.5416691307919865,-0.18366431890004983,-0.3434125595821438,-0.27277805753867906,2.2281310356779422,2.079777027916544,2.2129295540945164,2.0,1.0,12.0
1.2814780483668762,0.9196587995584145,1.104550613437689,0.5255247386503538,-0.42810725150386186,-0.5655819905509485,-0.5416691307919865,-0.18366431890004983,-0.3434125595821438,-0.27277805753867906,2.2281310356779422,2.079777027916544,2.2129295540945164,2.0,1.0,12.0
1.2814780483668762,1.0118898437663537,1.1707364972648364,0.5255247386503538,-0.42810725150386186,-0.5655819905509485,-0.5416691307919865,-0.18366431890004983,-0.3434125595821438,-0.27277805753867906,2.2281310356779422,2.079777027916544,2.2129295540945164,2.0,1.0,12.0
0.7720115568348555,0.5507346227266573,0.7262044417093698,0.5255247386503538,0.4413833444747176,0.289914382413261,0.3686374656463998,-1.7732430504478123,-1.8669791080716087,-1.9271720527191154,1.0888874433061713,0.9611579265084752,1.0458175890942778,2.0,1.0,12.0
1.179584750060472,0.9196587995584145,1.0917085762771983,0.5255247386503538,0.4413833444747176,0.289914382413261,0.3686374656463998,-1.7941585600734407,-1.8669791080716087,-1.9271720527191154,1.057241787962511,0.9300851736915843,1.0138419188202987,2.0,1.0,12.0
0.9757981534476637,1.104120887974293,1.104550613437689,0.5255247386503538,0.4413833444747176,0.289914382413261,0.3686374656463998,-1.7941585600734407,-1.8669791080716087,-1.9271720527191154,1.057241787962511,0.9300851736915843,1.0298297539572883,2.0,1.0,12.0
1.0776914517540679,0.9196587995584145,1.005765712203141,0.5255247386503538,0.4413833444747176,0.289914382413261,0.3686374656463998,-1.7941585600734407,-1.8669791080716087,-1.9271720527191154,1.0414189602906807,0.9300851736915843,1.0138419188202987,1.0,1.0,12.0
0.8739048551412596,0.9196587995584145,0.9069808109685927,0.5255247386503538,0.4413833444747176,0.289914382413261,0.3686374656463998,-1.7941585600734407,-1.8669791080716087,-1.9486576890201601,1.0414189602906807,0.9145487972831389,0.9978540836833092,0.0,0.0,12.0
0.3644383636092389,0.6429656669345966,0.5612336566476743,0.5255247386503538,0.4413833444747176,0.289914382413261,0.39800219456376706,-1.7941585600734407,-1.8471925295197973,-1.9271720527191154,1.0888874433061713,0.9766943029169206,1.0618054242312673,0.0,0.0,12.0
4.949636787397425,4.332207435252168,4.684515434177713,0.5255247386503538,-1.2975978474824414,3.9050764746168563,1.1908498753326842,-0.49739696328447663,2.2882023878087505,1.4675584828459358,0.23445474902734315,1.5826129828462911,0.821987897176424,0.0,0.0,12.0
4.643956892478212,4.701131612083926,4.842571276152991,0.5255247386503538,-2.1951365272022656,2.9115968156906775,-1.1876931669740671,0.820280143130116,2.2882023878087505,1.4675584828459358,-0.1611159427684106,2.0953134043249895,0.8859392377243821,0.0,0.0,12.0
0.5682249602220472,0.6429656669345966,0.6570550108451858,0.5255247386503538,-0.42810725150386186,-0.5379853333585548,-0.482939672957252,-0.14183329964879293,-0.30383940247852137,-0.25129242123763446,2.2439538633497724,2.0953134043249895,2.2289173892315066,0.0,0.0,12.0
0.6701182585284513,0.7351967111425359,0.7262044417093698,0.5255247386503538,-0.652491921433818,-0.8139519052824934,-0.7765869621309249,-0.8320451172945319,-0.9567964946882921,-0.9603184191721073,1.943320137584999,1.800122252564527,1.9091606864917148,0.0,0.0,12.0
0.7720115568348555,0.8274277553504752,0.7094110084994965,-1.4299161493509978,-0.4561553352451064,-0.4000020473965854,-0.42421021512251733,0.6947870853763453,0.6854895251120403,0.7800181212125078,-0.619977945251485,-0.6390888435614015,-0.6648807705636065,0.0,0.0,19.0
0.5682249602220472,0.6429656669345966,0.5385131293637279,0.5255247386503538,-2.279280778425999,-0.15163213266504075,-0.482939672957252,-1.1876087809302156,0.9822882033892089,0.7800181212125078,-0.9997258093754083,-0.03317016363203082,-0.6488929354266169,0.0,0.0,19.0
0.6701182585284513,0.6429656669345966,0.6066747112155672,-1.4299161493509978,-0.42810725150386186,-0.45519536178137315,-0.482939672957252,0.5692940276225745,0.9822882033892089,0.8659606664166862,-0.7149149112824658,-0.42157957384316586,-0.6488929354266169,0.0,0.0,19.0
0.5682249602220472,0.3662725343107787,0.4989991688699094,-1.4299161493509978,-0.7366361726575513,0.013947810489322391,-0.3654807572877827,0.506547498745689,0.7250626822156628,0.7155612123093739,-1.0155486370472386,-0.49926145588539295,-0.6968564408375857,0.0,0.0,19.0
0.3644383636092389,0.1818104458949001,0.2816723861539032,-1.4299161493509978,-0.28786683279763936,-0.4000020473965854,-0.3654807572877827,0.7575336142532305,0.6063432109047954,0.7155612123093739,-0.6516236005951453,-0.7478434784205195,-0.6968564408375857,0.0,0.0,19.0
0.6701182585284513,0.3662725343107787,0.5385131293637279,-1.4299161493509978,-0.28786683279763936,-0.42759870458897925,-0.3654807572877827,0.7575336142532305,0.6063432109047954,0.7155612123093739,-0.6516236005951453,-0.7478434784205195,-0.6968564408375857,0.0,0.0,19.0
0.7720115568348555,1.2885829763901717,0.8605519073883552,0.5255247386503538,-0.42810725150386186,-0.42759870458897925,-0.39484548620515003,0.506547498745689,0.6459163680084178,0.7155612123093739,-0.7149149112824658,-0.7012343491951832,-0.6968564408375857,0.0,0.0,19.0
0.6701182585284513,0.8274277553504752,0.7588034591167705,-1.4299161493509978,-0.34396300028012844,-0.4000020473965854,-0.39484548620515003,0.7157025950019736,0.8042089964229077,0.7800181212125078,-0.6516236005951453,-0.7012343491951832,-0.680868605700596,0.0,0.0,19.0
1.2814780483668762,1.104120887974293,1.203335514672237,2.480965626651705,-1.7183191036011087,5.091732733889792,0.48609638131586896,-0.6647210402895043,2.3079889663605613,0.8444750301156416,-1.1737769137655403,0.8524032916493572,-0.5849415948786585,0.0,0.0,19.0
0.9757981534476637,1.7497381974298682,1.3515128665240594,2.480965626651705,0.9182007680758743,2.9115968156906775,1.5138618934237245,-0.7274675691663895,2.6047876446377303,1.0378457568250432,-1.2370682244528608,0.30863011735376805,-0.568953759741669,0.0,0.0,19.0
0.5682249602220472,0.45850357851871804,0.4989991688699094,0.5255247386503538,1.7315951965719647,1.5869572704557722,1.7194149958452958,1.1340127875145427,0.9031418891819638,1.0808170294271324,-0.49339532387684365,-0.57694333792762,-0.53697808946769,0.0,0.0,19.0
0.7720115568348555,0.8274277553504752,0.8319042860303356,0.5255247386503538,0.6377199306634291,0.7866542118763505,0.6329200259027056,-0.01634024189502223,2.0309768666352044,1.6179579369532482,-0.7623833942979563,-0.06424291644892158,-0.3131483975498359,0.0,0.0,19.0
0.6701182585284513,0.9196587995584145,0.6936054243019691,0.5255247386503538,0.6657680144046737,0.5382842971448057,0.6329200259027056,1.928802153288424,1.6748184527026022,1.8972712088668284,-0.1452931150965804,-0.25067943335026643,-0.20123355159090878,0.0,0.0,19.0
0.7720115568348555,0.6429656669345966,0.736082931832824,0.5255247386503538,0.6657680144046737,0.5106876399524118,0.6329200259027056,1.928802153288424,1.6748184527026022,1.8972712088668284,-0.1452931150965804,-0.25067943335026643,-0.20123355159090878,0.0,0.0,19.0
0.6701182585284513,0.9196587995584145,0.9069808109685927,0.5255247386503538,0.3291910095097397,0.8142508690687443,0.6916494837374401,-0.12091779002316447,1.753964766909847,1.5535010280501143,-1.0313714647190688,-0.25067943335026643,-0.44105107864575244,0.0,0.0,19.0
0.7720115568348555,0.5507346227266573,0.6768119910920958,0.5255247386503538,0.7218641818871627,0.5658809543371995,0.6916494837374401,1.6359850185296256,1.3780197744254337,1.5964723006522037,-0.3826355301740327,-0.48372507947694754,-0.44105107864575244,0.0,0.0,19.0
0.8739048551412596,0.5507346227266573,0.7429978749192432,0.5255247386503538,0.7218641818871627,0.5658809543371995,0.6916494837374401,1.6359850185296256,1.3780197744254337,1.5964723006522037,-0.3826355301740327,-0.48372507947694754,-0.44105107864575244,0.0,0.0,19.0
0.7720115568348555,0.45850357851871804,0.6106261072649484,0.5255247386503538,0.7218641818871627,0.5658809543371995,0.6916494837374401,1.6359850185296256,1.3978063529772449,1.5964723006522037,-0.3826355301740327,-0.48372507947694754,-0.44105107864575244,0.0,0.0,19.0
0.5682249602220472,0.2740414901028394,0.46244875541312613,0.5255247386503538,0.7218641818871627,0.5658809543371995,0.6916494837374401,1.6359850185296256,1.3978063529772449,1.5964723006522037,-0.3826355301740327,-0.48372507947694754,-0.44105107864575244,0.0,0.0,19.0
0.6701182585284513,0.7351967111425359,0.7923903255365172,0.5255247386503538,0.7218641818871627,0.5658809543371995,0.6916494837374401,1.6359850185296256,1.3978063529772449,1.5964723006522037,-0.3826355301740327,-0.48372507947694754,-0.44105107864575244,0.0,0.0,19.0
0.7720115568348555,0.7351967111425359,0.7923903255365172,0.5255247386503538,0.7218641818871627,0.5658809543371995,0.6916494837374401,1.6359850185296256,1.3978063529772449,1.5964723006522037,-0.3826355301740327,-0.48372507947694754,-0.44105107864575244,0.0,0.0,19.0
0.7720115568348555,0.6429656669345966,0.7094110084994965,0.5255247386503538,0.7218641818871627,0.5658809543371995,0.6622847548200728,1.6359850185296256,1.3978063529772449,1.5964723006522037,-0.3826355301740327,-0.48372507947694754,-0.44105107864575244,0.0,0.0,19.0
0.7720115568348555,0.3662725343107787,0.5780270898575476,0.5255247386503538,0.7218641818871627,0.5658809543371995,0.6622847548200728,1.6359850185296256,1.3978063529772449,1.5964723006522037,-0.3826355301740327,-0.48372507947694754,-0.44105107864575244,0.0,0.0,19.0
0.7720115568348555,0.7351967111425359,0.8081959097340446,0.5255247386503538,0.7218641818871627,0.5658809543371995,0.6916494837374401,1.6359850185296256,1.3978063529772449,1.5964723006522037,-0.3826355301740327,-0.48372507947694754,-0.44105107864575244,0.0,0.0,19.0
0.8739048551412596,0.6429656669345966,0.7923903255365172,0.5255247386503538,0.7218641818871627,0.5658809543371995,0.6622847548200728,1.6359850185296256,1.3978063529772449,1.5964723006522037,-0.3826355301740327,-0.48372507947694754,-0.44105107864575244,0.0,0.0,19.0
0.3644383636092389,0.2740414901028394,0.363663854178578,0.5255247386503538,0.7218641818871627,0.5658809543371995,0.6622847548200728,1.6569005281552542,1.3978063529772449,1.5964723006522037,-0.3826355301740327,-0.48372507947694754,-0.42506324350876284,0.0,0.0,19.0
0.46633166191564307,0.1818104458949001,0.36070030714154144,0.5255247386503538,0.7218641818871627,0.5658809543371995,0.6622847548200728,1.6359850185296256,1.3978063529772449,1.5964723006522037,-0.3826355301740327,-0.48372507947694754,-0.42506324350876284,0.0,0.0,19.0
0.46633166191564307,0.5507346227266573,0.5217196961538558,0.5255247386503538,0.7218641818871627,0.5658809543371995,0.6622847548200728,1.6569005281552542,1.3978063529772449,1.5964723006522037,-0.3826355301740327,-0.48372507947694754,-0.42506324350876284,0.0,0.0,19.0
0.46633166191564307,0.45850357851871804,0.5187561491168193,0.5255247386503538,0.7218641818871627,0.5658809543371995,0.6622847548200728,1.6359850185296256,1.3978063529772449,1.5964723006522037,-0.3826355301740327,-0.48372507947694754,-0.42506324350876284,0.0,0.0,19.0
0.3644383636092389,0.6429656669345966,0.4130563047958521,0.5255247386503538,0.5255275956984512,1.64215058484056,0.7210142126548075,0.8830266720070012,2.228842652153317,1.7898430273616053,-0.3826355301740327,1.038839808550702,0.006608305189955673,0.0,0.0,19.0
1.0776914517540679,1.104120887974293,1.055158162820415,0.5255247386503538,0.8340565168521407,0.6486709259143811,0.779743670489542,2.2843658169241077,2.011190288083393,2.262527025984587,1.168001581665322,1.038839808550702,1.1417445999162152,0.0,0.0,19.0
0.6701182585284513,0.7351967111425359,0.7755968923266439,0.5255247386503538,0.8060084331108962,0.6486709259143811,0.779743670489542,2.2843658169241077,1.9914037095315817,2.262527025984587,1.168001581665322,1.038839808550702,1.1417445999162152,0.0,0.0,19.0
0.7720115568348555,0.45850357851871804,0.594820523067421,0.5255247386503538,0.8340565168521407,0.6486709259143811,0.779743670489542,2.2843658169241077,1.9914037095315817,2.262527025984587,1.1838244093371522,1.0543761849591475,1.1417445999162152,0.0,0.0,19.0
0.6701182585284513,0.5507346227266573,0.594820523067421,0.5255247386503538,0.8060084331108962,0.6486709259143811,0.779743670489542,2.2843658169241077,1.9914037095315817,2.262527025984587,1.1838244093371522,1.0543761849591475,1.157732435053205,0.0,0.0,19.0
0.6701182585284513,0.2740414901028394,0.4792421886229995,0.5255247386503538,0.8060084331108962,0.6486709259143811,0.779743670489542,2.2843658169241077,1.9914037095315817,2.2410413896835424,1.1838244093371522,1.0543761849591475,1.157732435053205,0.0,0.0,19.0
0.5682249602220472,0.3662725343107787,0.5118412060304002,0.5255247386503538,0.8060084331108962,0.6486709259143811,0.7503789415721748,2.2843658169241077,1.9914037095315817,2.2410413896835424,1.1838244093371522,1.0543761849591475,1.157732435053205,0.0,0.0,19.0
0.46633166191564307,0.1818104458949001,0.30142936640081314,0.5255247386503538,0.8060084331108962,0.6486709259143811,0.7503789415721748,2.2843658169241077,1.9914037095315817,2.262527025984587,1.1363559263216616,1.0699125613675928,1.1417445999162152,1.0,1.0,19.0
0.46633166191564307,0.1818104458949001,0.2984658193637766,0.5255247386503538,0.8060084331108962,0.6486709259143811,0.7503789415721748,2.263450307298479,1.9914037095315817,2.2410413896835424,1.1838244093371522,1.0854489377760383,1.1737202701901945,1.0,1.0,19.0
0.46633166191564307,0.1818104458949001,0.33106483677117726,0.5255247386503538,0.8060084331108962,0.6486709259143811,0.779743670489542,2.2843658169241077,1.9914037095315817,2.262527025984587,1.1838244093371522,1.0543761849591475,1.157732435053205,1.0,1.0,19.0
0.46633166191564307,0.1818104458949001,0.36070030714154144,0.5255247386503538,0.8060084331108962,0.676267583106775,0.779743670489542,2.263450307298479,1.9914037095315817,2.2410413896835424,1.1838244093371522,1.116521690592929,1.157732435053205,1.0,1.0,19.0
0.3644383636092389,0.1818104458949001,0.2984658193637766,0.5255247386503538,0.8340565168521407,0.676267583106775,0.779743670489542,2.263450307298479,1.9914037095315817,2.2410413896835424,1.168001581665322,1.116521690592929,1.189708105327184,2.0,1.0,19.0
0.3644383636092389,0.2740414901028394,0.33106483677117726,0.5255247386503538,0.8340565168521407,0.676267583106775,0.779743670489542,2.263450307298479,1.9716171309797705,2.2410413896835424,1.2312928923526425,1.1009853141844839,1.2056959404641736,2.0,1.0,19.0
0.3644383636092389,0.1818104458949001,0.2816723861539032,0.5255247386503538,0.8340565168521407,0.676267583106775,0.779743670489542,2.263450307298479,1.9716171309797705,2.2410413896835424,1.2154700646808125,1.116521690592929,1.189708105327184,2.0,1.0,19.0
0.3644383636092389,-0.0026516425209784644,0.18288748491935508,0.5255247386503538,0.8340565168521407,0.676267583106775,0.779743670489542,2.263450307298479,1.9716171309797705,2.2410413896835424,1.2312928923526425,1.1320580670013745,1.2056959404641736,2.0,1.0,19.0
0.3644383636092389,0.2740414901028394,0.2984658193637766,0.5255247386503538,0.8340565168521407,0.6486709259143811,0.779743670489542,2.263450307298479,1.9716171309797705,2.219555753382498,1.2471157200244727,1.116521690592929,1.2216837756011631,2.0,1.0,19.0
0.46633166191564307,0.2740414901028394,0.3972507205983247,0.5255247386503538,0.8060084331108962,0.6486709259143811,0.779743670489542,2.263450307298479,1.9716171309797705,2.219555753382498,1.2629385476963026,1.1320580670013745,1.2216837756011631,2.0,1.0,19.0
0.3644383636092389,0.2740414901028394,0.2984658193637766,0.5255247386503538,0.8060084331108962,0.6486709259143811,0.779743670489542,2.263450307298479,1.9716171309797705,2.219555753382498,1.2629385476963026,1.1320580670013745,1.2216837756011631,2.0,1.0,19.0
0.46633166191564307,0.2740414901028394,0.38045728738845136,0.5255247386503538,0.8060084331108962,0.6486709259143811,0.779743670489542,2.263450307298479,1.9716171309797705,2.219555753382498,1.2629385476963026,1.1320580670013745,1.2216837756011631,2.0,1.0,19.0
0.3644383636092389,0.1818104458949001,0.2816723861539032,0.5255247386503538,0.8060084331108962,0.6486709259143811,0.779743670489542,2.263450307298479,1.9716171309797705,2.219555753382498,1.2629385476963026,1.1320580670013745,1.237671610738153,2.0,1.0,19.0
0.2625450653028348,0.1818104458949001,0.2490733687465025,0.5255247386503538,0.8060084331108962,0.6486709259143811,0.779743670489542,2.263450307298479,2.090336602290638,2.219555753382498,1.2312928923526425,1.1320580670013745,1.237671610738153,2.0,1.0,19.0
-0.043134829616377615,0.8274277553504752,0.2816723861539032,0.5255247386503538,0.7218641818871627,1.0074274694155012,0.8972025861590113,-0.3509883959050774,2.090336602290638,-0.1223786034313667,-0.7940290496416166,0.18433910608620485,-0.792783451659523,1.0,1.0,19.0
-0.043134829616377615,-0.0026516425209784644,0.05150356627740623,0.5255247386503538,0.9182007680758743,0.7590575546839566,0.8972025861590113,-0.058171261146279116,-0.2246930882712764,-0.16534987603345594,-0.7465605666261261,-0.8410617368711918,-0.8087712867965126,2.0,1.0,19.0
0.5682249602220472,0.1818104458949001,0.38045728738845136,0.5255247386503538,0.9182007680758743,0.7590575546839566,0.8678378572416439,-0.100002280397536,-0.16533335261584273,-0.16534987603345594,-0.7623833942979563,-0.809988984054301,-0.792783451659523,2.0,1.0,19.0
0.2625450653028348,0.1818104458949001,0.24215842566008342,0.5255247386503538,0.9182007680758743,0.7590575546839566,0.8678378572416439,-0.037255751520650644,-0.20490650971946522,-0.14386423973241128,-0.7465605666261261,-0.8410617368711918,-0.8087712867965126,2.0,1.0,19.0
0.3644383636092389,0.2740414901028394,0.38045728738845136,0.5255247386503538,0.8901526843346297,0.7590575546839566,0.8678378572416439,-0.058171261146279116,-0.20490650971946522,-0.14386423973241128,-0.7465605666261261,-0.8410617368711918,-0.8087712867965126,2.0,1.0,19.0
0.3644383636092389,0.2740414901028394,0.3478582699810506,0.5255247386503538,0.9182007680758743,0.7590575546839566,0.8678378572416439,-0.07908677077190758,-0.20490650971946522,-0.14386423973241128,-0.7465605666261261,-0.8410617368711918,-0.8087712867965126,2.0,1.0,19.0
0.5682249602220472,0.3662725343107787,0.4298497380057254,0.5255247386503538,0.9182007680758743,0.7590575546839566,0.8678378572416439,-0.058171261146279116,-0.2246930882712764,-0.14386423973241128,-0.7465605666261261,-0.8410617368711918,-0.8087712867965126,2.0,1.0,19.0
0.5682249602220472,0.3662725343107787,0.44664317121559877,0.5255247386503538,-1.942703773531065,2.5528402721895573,0.779743670489542,-1.4176793868121287,0.9822882033892089,-0.20832114863554516,-1.3952965011711622,0.5727485162973399,-0.7288321111115648,2.0,1.0,19.0
0.5682249602220472,1.9342002858457468,1.516483651585755,0.5255247386503538,-1.1012612612937298,-0.5103886761661609,-0.7178575042961903,0.9039421816326297,1.3582331958736225,1.1667595746313109,-0.6358007729233152,-0.37497044461782975,-0.48901458405672116,0.0,0.0,19.0
0.16065176699643066,0.1818104458949001,0.12361654417862676,-1.4299161493509978,-0.5963957539513288,-0.7311619337053117,-0.7178575042961903,1.2176748260170567,1.00207478194102,1.1667595746313109,-0.4301040131895232,-0.5147978322938384,-0.47302674891973157,0.0,0.0,19.0
0.2625450653028348,-0.0026516425209784644,0.16609405170948172,-1.4299161493509978,-0.5963957539513288,-0.7311619337053117,-0.7178575042961903,1.2176748260170567,1.0218613604928313,1.1667595746313109,-0.4301040131895232,-0.5303342087022838,-0.47302674891973157,1.0,1.0,19.0
0.3644383636092389,0.08957940168696082,0.21548650232675579,-1.4299161493509978,-0.5963957539513288,-0.7311619337053117,-0.7178575042961903,1.2176748260170567,1.0218613604928313,1.1667595746313109,-0.4301040131895232,-0.5303342087022838,-0.47302674891973157,1.0,1.0,19.0
0.3644383636092389,0.08957940168696082,0.2224014454131749,-1.4299161493509978,-0.5963957539513288,-0.7311619337053117,-0.7178575042961903,1.2176748260170567,1.0218613604928313,1.1882452109323556,-0.4301040131895232,-0.5303342087022838,-0.47302674891973157,2.0,1.0,19.0
0.6701182585284513,0.45850357851871804,0.5780270898575476,-1.4299161493509978,-0.6244438376925734,-0.7311619337053117,-0.7178575042961903,1.1967593163914283,1.0218613604928313,1.1667595746313109,-0.4301040131895232,-0.5303342087022838,-0.47302674891973157,2.0,1.0,19.0
0.6701182585284513,0.45850357851871804,0.594820523067421,-1.4299161493509978,-0.6244438376925734,-0.7311619337053117,-0.7178575042961903,1.1967593163914283,1.00207478194102,1.1667595746313109,-0.4301040131895232,-0.5303342087022838,-0.48901458405672116,2.0,1.0,19.0
0.7720115568348555,0.45850357851871804,0.6600185578822224,-1.4299161493509978,-0.6244438376925734,-0.7311619337053117,-0.7178575042961903,1.1758438067657997,1.00207478194102,1.1667595746313109,-0.4301040131895232,-0.5303342087022838,-0.47302674891973157,2.0,1.0,19.0
0.5682249602220472,0.3662725343107787,0.49603562183287286,-1.4299161493509978,-0.6244438376925734,-0.7311619337053117,-0.7178575042961903,1.1549282971401713,1.2790868816663774,1.1667595746313109,-0.4301040131895232,-0.3905068210262752,-0.47302674891973157,2.0,1.0,19.0
0.5682249602220472,0.1818104458949001,0.38045728738845136,-1.4299161493509978,-0.6244438376925734,-0.7311619337053117,-0.7178575042961903,1.3013368645195704,1.1010076747000763,1.2741877561365342,-0.3826355301740327,-0.48372507947694754,-0.42506324350876284,2.0,1.0,19.0
0.3644383636092389,0.5507346227266573,0.49603562183287286,-1.4299161493509978,-0.6244438376925734,-0.7311619337053117,-0.7178575042961903,1.3013368645195704,1.1010076747000763,1.2741877561365342,-0.3826355301740327,-0.48372507947694754,-0.42506324350876284,2.0,1.0,19.0
0.5682249602220472,0.45850357851871804,0.5454280724501469,-1.4299161493509978,-0.6244438376925734,-0.7587585908977056,-0.7178575042961903,1.2804213548939418,1.1010076747000763,1.2741877561365342,-0.3826355301740327,-0.48372507947694754,-0.42506324350876284,2.0,1.0,19.0
0.5682249602220472,0.2740414901028394,0.4051535126970884,0.5255247386503538,-1.157357428776219,0.7038642402991689,-0.482939672957252,-1.3758483675608717,1.0812210961482651,0.8874463027177308,-0.8731431880007674,-0.37497044461782975,-0.568953759741669,2.0,1.0,19.0
0.46633166191564307,0.1818104458949001,0.3241498936847596,-1.4299161493509978,-0.28786683279763936,-0.42759870458897925,-0.39484548620515003,0.9248576912582582,0.8042089964229077,0.8874463027177308,-0.6041551175796548,-0.7012343491951832,-0.6648807705636065,2.0,1.0,19.0
0.2625450653028348,0.2740414901028394,0.2619154059069933,-1.4299161493509978,-0.3159149165388839,-0.42759870458897925,-0.39484548620515003,0.9457732008838867,0.7646358393192851,0.8874463027177308,-0.6041551175796548,-0.7012343491951832,-0.6648807705636065,2.0,1.0,19.0
0.16065176699643066,0.1818104458949001,0.19968091812922845,-1.4299161493509978,-0.3159149165388839,-0.42759870458897925,-0.39484548620515003,0.9248576912582582,0.7646358393192851,0.8874463027177308,-0.6041551175796548,-0.7012343491951832,-0.6648807705636065,2.0,1.0,19.0
0.46633166191564307,0.2740414901028394,0.36070030714154144,-1.4299161493509978,-0.28786683279763936,-0.42759870458897925,-0.39484548620515003,0.9039421816326297,0.7646358393192851,0.8874463027177308,-0.6041551175796548,-0.7012343491951832,-0.6648807705636065,2.0,1.0,19.0
0.6701182585284513,0.3662725343107787,0.5612336566476743,-1.4299161493509978,-0.3159149165388839,-0.42759870458897925,-0.39484548620515003,0.9039421816326297,0.744849260767474,0.8659606664166862,-0.619977945251485,-0.7012343491951832,-0.6648807705636065,2.0,1.0,19.0
0.5682249602220472,0.1818104458949001,0.38045728738845136,-1.4299161493509978,-0.3159149165388839,-0.42759870458897925,-0.39484548620515003,0.8830266720070012,0.744849260767474,0.8659606664166862,-0.6041551175796548,-0.7012343491951832,-0.6648807705636065,2.0,1.0,19.0
0.3644383636092389,0.3662725343107787,0.38045728738845136,-1.4299161493509978,-0.34396300028012844,-0.42759870458897925,-0.39484548620515003,0.8830266720070012,0.744849260767474,0.8659606664166862,-0.619977945251485,-0.7012343491951832,-0.6648807705636065,3.0,1.0,19.0
0.46633166191564307,0.1818104458949001,0.31427140356130395,-1.4299161493509978,-0.3159149165388839,-0.42759870458897925,-0.39484548620515003,0.9039421816326297,0.744849260767474,0.8659606664166862,-0.619977945251485,-0.7012343491951832,-0.6648807705636065,3.0,1.0,19.0
0.46633166191564307,0.1818104458949001,0.363663854178578,-1.4299161493509978,-0.3159149165388839,-0.42759870458897925,-0.39484548620515003,0.9039421816326297,0.7250626822156628,0.8659606664166862,-0.619977945251485,-0.7012343491951832,-0.6648807705636065,3.0,1.0,19.0
0.3644383636092389,0.3662725343107787,0.4002142676353613,-1.4299161493509978,-0.3159149165388839,-0.42759870458897925,-0.39484548620515003,0.8830266720070012,0.7250626822156628,0.8659606664166862,-0.619977945251485,-0.7012343491951832,-0.6648807705636065,3.0,1.0,19.0
0.6701182585284513,0.5507346227266573,0.5780270898575476,-1.4299161493509978,-0.3159149165388839,-0.42759870458897925,-0.39484548620515003,0.9039421816326297,0.7250626822156628,0.8659606664166862,-0.619977945251485,-0.7012343491951832,-0.6648807705636065,3.0,1.0,19.0
0.46633166191564307,0.45850357851871804,0.5780270898575476,-1.4299161493509978,-0.3159149165388839,-0.42759870458897925,-0.39484548620515003,0.8830266720070012,0.7250626822156628,0.8444750301156416,-0.619977945251485,-0.7167707256036286,-0.6648807705636065,3.0,1.0,19.0
0.5682249602220472,0.3662725343107787,0.5454280724501469,-1.4299161493509978,-0.48420341898635094,-0.4000020473965854,-0.39484548620515003,0.590209537248203,0.7646358393192851,0.8444750301156416,-0.6674464282669754,-0.6856979727867378,-0.6648807705636065,3.0,1.0,19.0
0.5682249602220472,1.0118898437663537,0.5454280724501469,0.5255247386503538,-0.7646842563987958,-0.34480873301179776,-0.4535749440398847,0.5692940276225745,0.823995574974719,0.6081330308041507,-0.730737738954296,-0.57694333792762,-0.7128442759745752,2.0,1.0,19.0
-0.043134829616377615,0.3662725343107787,0.23227993553662915,-1.4299161493509978,-0.37201108402137295,-0.482792018973767,-0.4535749440398847,0.6529560661250883,0.48762373959392796,0.5866473945031061,-0.6516236005951453,-0.7478434784205195,-0.7128442759745752,2.0,1.0,19.0
-0.14502812792278175,-0.18711373093685704,-0.11346721878428932,-1.4299161493509978,-0.37201108402137295,-0.482792018973767,-0.4535749440398847,0.5692940276225745,0.5074103181457392,0.6296186671051952,-0.6516236005951453,-0.7167707256036286,-0.7128442759745752,2.0,1.0,19.0
0.2625450653028348,0.45850357851871804,0.4130563047958521,-1.4299161493509978,-0.34396300028012844,-0.482792018973767,-0.4535749440398847,0.6738715757507168,0.5271968966975505,0.6296186671051952,-0.6516236005951453,-0.7478434784205195,-0.7128442759745752,2.0,1.0,19.0
0.46633166191564307,0.1818104458949001,0.363663854178578,0.5255247386503538,-0.34396300028012844,-0.482792018973767,-0.4535749440398847,0.6738715757507168,0.5271968966975505,0.6296186671051952,-0.6516236005951453,-0.7478434784205195,-0.7128442759745752,2.0,1.0,19.0
0.46633166191564307,0.3662725343107787,0.3972507205983247,-1.4299161493509978,-0.34396300028012844,-0.482792018973767,-0.42421021512251733,0.6738715757507168,0.5271968966975505,0.6296186671051952,-0.6516236005951453,-0.7478434784205195,-0.7128442759745752,2.0,1.0,19.0
0.46633166191564307,0.1818104458949001,0.36662740121561455,0.5255247386503538,-0.34396300028012844,-0.482792018973767,-0.4535749440398847,0.6738715757507168,0.5271968966975505,0.6296186671051952,-0.6516236005951453,-0.7478434784205195,-0.7128442759745752,2.0,1.0,19.0
0.5682249602220472,0.45850357851871804,0.5187561491168193,-1.4299161493509978,-0.34396300028012844,-0.482792018973767,-0.4535749440398847,0.6738715757507168,0.5271968966975505,0.6296186671051952,-0.6516236005951453,-0.7478434784205195,-0.7128442759745752,2.0,1.0,19.0
0.3644383636092389,0.45850357851871804,0.4792421886229995,0.5255247386503538,-0.34396300028012844,-0.482792018973767,-0.4535749440398847,0.6738715757507168,0.5271968966975505,0.6296186671051952,-0.6516236005951453,-0.7478434784205195,-0.7128442759745752,3.0,1.0,19.0
0.46633166191564307,0.6429656669345966,0.594820523067421,-1.4299161493509978,-0.34396300028012844,-0.482792018973767,-0.4535749440398847,0.6738715757507168,0.5271968966975505,0.6296186671051952,-0.6516236005951453,-0.7478434784205195,-0.7128442759745752,3.0,1.0,19.0
0.5682249602220472,0.3662725343107787,0.4298497380057254,-1.4299161493509978,-0.37201108402137295,-0.4000020473965854,-0.42421021512251733,0.46471647949443223,0.5271968966975505,0.6081330308041507,-0.6674464282669754,-0.6856979727867378,-0.7128442759745752,2.0,1.0,19.0
0.5682249602220472,0.5507346227266573,0.5454280724501469,-1.4299161493509978,-0.34396300028012844,-0.482792018973767,-0.42421021512251733,0.6529560661250883,0.5074103181457392,0.6081330308041507,-0.6516236005951453,-0.7478434784205195,-0.7128442759745752,2.0,1.0,19.0
0.7720115568348555,0.3662725343107787,0.5780270898575476,-1.4299161493509978,-0.34396300028012844,-0.45519536178137315,-0.42421021512251733,0.6529560661250883,0.5074103181457392,0.6081330308041507,-0.6516236005951453,-0.7478434784205195,-0.7128442759745752,2.0,1.0,19.0
0.46633166191564307,0.2740414901028394,0.36070030714154144,-1.4299161493509978,-0.34396300028012844,-0.45519536178137315,-0.42421021512251733,0.6738715757507168,0.5074103181457392,0.6081330308041507,-0.6516236005951453,-0.7478434784205195,-0.7128442759745752,2.0,1.0,19.0
0.5682249602220472,0.1818104458949001,0.38045728738845136,-1.4299161493509978,-0.34396300028012844,-0.45519536178137315,-0.42421021512251733,0.6529560661250883,0.5074103181457392,0.6081330308041507,-0.6516236005951453,-0.7478434784205195,-0.7128442759745752,2.0,1.0,19.0
0.3644383636092389,0.3662725343107787,0.3478582699810506,-1.4299161493509978,-0.37201108402137295,-0.42759870458897925,-0.42421021512251733,0.6529560661250883,0.5074103181457392,0.6081330308041507,-0.6516236005951453,-0.732307102012074,-0.7128442759745752,2.0,1.0,19.0
0.3644383636092389,0.08957940168696082,0.19671737109219187,0.5255247386503538,-1.550030601153642,-0.5103886761661609,-0.8940458778003941,-0.8111296076689035,1.8528976596689033,1.0808170294271324,-1.4427649841866526,1.489394724395619,-0.29716056241284633,0.0,0.0,27.0
-0.14502812792278175,0.08957940168696082,-0.17273815952501764,-1.4299161493509978,-0.5963957539513288,-0.6207753049357363,-0.6297633175440884,0.08823730623312007,-0.04661388130497531,0.0065352143749011,-0.6516236005951453,-0.7167707256036286,-0.6968564408375857,0.0,0.0,27.0
0.3644383636092389,-0.0026516425209784644,0.18288748491935508,-1.4299161493509978,-0.9610208425875075,-0.6759686193205241,-0.9234106067177614,0.548378517996946,1.7341781883580356,0.8874463027177308,-0.6516236005951453,0.23094823531154102,-0.47302674891973157,0.0,0.0,27.0
0.05875846869002652,0.9196587995584145,0.6936054243019691,-1.4299161493509978,-1.1854055125174634,-1.2554984203607948,-1.275787353726169,0.0673217966074916,-0.06640045985678657,0.0065352143749011,-0.44592684086135337,-0.5147978322938384,-0.48901458405672116,0.0,0.0,27.0
0.3644383636092389,-0.0026516425209784644,0.18288748491935508,-1.4299161493509978,-1.157357428776219,-1.2830950775531889,-1.275787353726169,0.36013893136629,0.17103848276494826,0.28584848628848125,-0.4301040131895232,-0.5303342087022838,-0.48901458405672116,0.0,0.0,27.0
0.16065176699643066,0.1818104458949001,0.16313050467244516,-1.4299161493509978,-1.1012612612937298,-1.227901763168401,-1.2464226248088017,0.590209537248203,0.42826400393849423,0.5436761219010169,-0.4301040131895232,-0.5303342087022838,-0.48901458405672116,1.0,1.0,27.0
0.05875846869002652,-0.18711373093685704,-0.09371023853737942,-1.4299161493509978,-1.0451650938112407,-1.1727084487836132,-1.1583284380566998,0.548378517996946,0.36890426828306055,0.47921921299788295,-0.4617496685331835,-0.5614069615191746,-0.5209902543307003,2.0,1.0,27.0
-0.043134829616377615,-0.18711373093685704,-0.14606623619169004,-1.4299161493509978,-1.0451650938112407,-1.1727084487836132,-1.1876931669740671,0.6738715757507168,0.48762373959392796,0.6081330308041507,-0.44592684086135337,-0.5458705851107292,-0.48901458405672116,2.0,1.0,27.0
0.05875846869002652,-0.18711373093685704,-0.06407476816701525,-1.4299161493509978,-1.0451650938112407,-1.1727084487836132,-1.1876931669740671,0.6738715757507168,0.48762373959392796,0.6081330308041507,-0.44592684086135337,-0.5458705851107292,-0.48901458405672116,3.0,1.0,27.0
-0.043134829616377615,-0.27934477514479633,-0.1628596694015634,-1.4299161493509978,-1.0451650938112407,-1.1727084487836132,-1.1583284380566998,0.6738715757507168,0.48762373959392796,0.6081330308041507,-0.44592684086135337,-0.5458705851107292,-0.5050024191937108,3.0,1.0,27.0
-0.043134829616377615,-0.27934477514479633,-0.17273815952501764,-1.4299161493509978,-1.0451650938112407,-1.1727084487836132,-1.1583284380566998,0.6529560661250883,0.5074103181457392,0.6081330308041507,-0.44592684086135337,-0.5303342087022838,-0.48901458405672116,3.0,1.0,27.0
-0.043134829616377615,-0.37157581935273565,-0.21225212001883748,-1.4299161493509978,-1.0451650938112407,-1.1727084487836132,-1.1583284380566998,0.6947870853763453,0.48762373959392796,0.6081330308041507,-0.44592684086135337,-0.5458705851107292,-0.48901458405672116,3.0,1.0,27.0
-0.043134829616377615,-0.27934477514479633,-0.15298117927810914,-1.4299161493509978,-1.0451650938112407,-1.1727084487836132,-1.1583284380566998,0.6738715757507168,0.48762373959392796,0.6081330308041507,-0.44592684086135337,-0.5458705851107292,-0.5050024191937108,2.0,1.0,27.0
0.16065176699643066,-0.09488268672891775,0.017916699857659524,-1.4299161493509978,-1.0451650938112407,-1.1727084487836132,-1.1583284380566998,0.6738715757507168,0.48762373959392796,0.6081330308041507,-0.44592684086135337,-0.5458705851107292,-0.5050024191937108,3.0,1.0,27.0
0.05875846869002652,-0.18711373093685704,-0.09667378557441597,-1.4299161493509978,-1.0451650938112407,-1.1727084487836132,-1.1583284380566998,0.6738715757507168,0.48762373959392796,0.6081330308041507,-0.44592684086135337,-0.5458705851107292,-0.5050024191937108,3.0,1.0,27.0
0.05875846869002652,-0.18711373093685704,-0.09667378557441597,-1.4299161493509978,-1.0451650938112407,-1.1727084487836132,-1.1583284380566998,0.6738715757507168,0.48762373959392796,0.6081330308041507,-0.44592684086135337,-0.5458705851107292,-0.5050024191937108,3.0,1.0,27.0
0.2625450653028348,-0.09488268672891775,0.08410258368480694,-1.4299161493509978,-1.0451650938112407,-1.1727084487836132,-1.1583284380566998,0.6738715757507168,0.48762373959392796,0.6081330308041507,-0.4617496685331835,-0.5458705851107292,-0.5050024191937108,3.0,1.0,27.0
0.2625450653028348,1.2885829763901717,0.8941387738081019,-1.4299161493509978,-1.0732131775524854,-1.1727084487836132,-1.1583284380566998,0.6320405564994599,0.5074103181457392,0.6081330308041507,-0.44592684086135337,-0.5303342087022838,-0.5050024191937108,2.0,1.0,27.0
0.46633166191564307,0.6429656669345966,0.6768119910920958,-1.4299161493509978,-1.0451650938112407,-1.1727084487836132,-1.1583284380566998,0.6738715757507168,0.48762373959392796,0.6081330308041507,-0.44592684086135337,-0.5458705851107292,-0.5050024191937108,5.0,0.0,27.0
0.2625450653028348,0.08957940168696082,0.18288748491935508,-1.4299161493509978,-1.0451650938112407,-1.1727084487836132,-1.1583284380566998,0.6947870853763453,0.48762373959392796,0.6296186671051952,-0.44592684086135337,-0.5458705851107292,-0.5050024191937108,5.0,0.0,27.0
0.3644383636092389,-0.0026516425209784644,0.18288748491935508,-1.4299161493509978,-0.989068926328752,-1.1175151343988259,-1.1289637091393327,0.506547498745689,0.34911768973124935,0.4577335766968383,-0.49339532387684365,-0.5924797143360655,-0.53697808946769,5.0,0.0,27.0
0.3644383636092389,0.08957940168696082,0.202644465166265,-1.4299161493509978,-0.989068926328752,-1.1175151343988259,-1.0995989802219654,0.506547498745689,0.3293311111794381,0.4362479403957937,-0.49339532387684365,-0.57694333792762,-0.53697808946769,5.0,0.0,27.0
0.3644383636092389,0.5507346227266573,0.4298497380057254,-1.4299161493509978,-0.7646842563987958,-0.8967418768596748,-0.8646811488830268,0.27647689286377614,0.11167874710951455,0.19990594108430274,-0.5883322899078247,-0.6856979727867378,-0.6329051002896273,2.0,1.0,27.0
0.16065176699643066,-0.0026516425209784644,0.07027269751197016,-1.4299161493509978,-0.7366361726575513,-0.8691452196672812,-0.8646811488830268,0.27647689286377614,0.11167874710951455,0.19990594108430274,-0.5883322899078247,-0.6856979727867378,-0.6329051002896273,2.0,1.0,27.0
0.05875846869002652,-0.09488268672891775,-0.01468231754974119,-1.4299161493509978,-0.7366361726575513,-0.8691452196672812,-0.8646811488830268,0.27647689286377614,0.11167874710951455,0.19990594108430274,-0.5883322899078247,-0.6856979727867378,-0.6488929354266169,2.0,1.0,27.0
0.05875846869002652,-0.0026516425209784644,0.06730915047493359,-1.4299161493509978,-0.7366361726575513,-0.8691452196672812,-0.8646811488830268,0.27647689286377614,0.11167874710951455,0.19990594108430274,-0.5883322899078247,-0.6856979727867378,-0.6488929354266169,2.0,1.0,27.0
0.16065176699643066,-0.09488268672891775,0.017916699857659524,-1.4299161493509978,-0.7366361726575513,-0.8691452196672812,-0.8646811488830268,0.27647689286377614,0.11167874710951455,0.19990594108430274,-0.5883322899078247,-0.6856979727867378,-0.6488929354266169,2.0,1.0,27.0
0.16065176699643066,-0.0026516425209784644,0.15028846751195438,-1.4299161493509978,-0.7366361726575513,-0.8691452196672812,-0.8646811488830268,0.27647689286377614,0.11167874710951455,0.19990594108430274,-0.5883322899078247,-0.6856979727867378,-0.6488929354266169,3.0,1.0,27.0
0.16065176699643066,-0.0026516425209784644,0.08410258368480694,-1.4299161493509978,-0.7366361726575513,-0.8691452196672812,-0.8353164199656596,0.27647689286377614,0.11167874710951455,0.19990594108430274,-0.5883322899078247,-0.6856979727867378,-0.6488929354266169,3.0,1.0,27.0
0.16065176699643066,-0.09488268672891775,0.005074662697168717,-1.4299161493509978,-0.7366361726575513,-0.8691452196672812,-0.8353164199656596,0.27647689286377614,0.11167874710951455,0.19990594108430274,-0.5883322899078247,-0.6856979727867378,-0.6488929354266169,3.0,1.0,27.0
0.05875846869002652,-0.18711373093685704,-0.04728133495714191,-1.4299161493509978,-0.7366361726575513,-0.8691452196672812,-0.8353164199656596,0.27647689286377614,0.11167874710951455,0.19990594108430274,-0.5883322899078247,-0.6856979727867378,-0.6488929354266169,3.0,1.0,27.0
0.16065176699643066,-0.09488268672891775,0.05150356627740623,-1.4299161493509978,-0.7366361726575513,-0.8691452196672812,-0.8353164199656596,0.27647689286377614,0.11167874710951455,0.19990594108430274,-0.5883322899078247,-0.6856979727867378,-0.6488929354266169,3.0,1.0,27.0
0.6701182585284513,0.8274277553504752,0.7923903255365172,-1.4299161493509978,-0.6805400051750624,-0.8139519052824934,-0.8059516910482923,0.3810544409919184,0.2106116398685707,0.3073341225895259,-0.6041551175796548,-0.7012343491951832,-0.6488929354266169,2.0,1.0,27.0
0.46633166191564307,0.1818104458949001,0.3409433268946315,-1.4299161493509978,-0.6805400051750624,-0.8139519052824934,-0.8059516910482923,0.40196995061754687,0.23039821842038197,0.3288197588905705,-0.6041551175796548,-0.7012343491951832,-0.6488929354266169,2.0,1.0,27.0
0.3644383636092389,0.2740414901028394,0.2619154059069933,-1.4299161493509978,-0.6805400051750624,-0.8139519052824934,-0.8059516910482923,0.40196995061754687,0.23039821842038197,0.3288197588905705,-0.6041551175796548,-0.7012343491951832,-0.6488929354266169,5.0,0.0,27.0
0.05875846869002652,0.08957940168696082,0.04458862319098713,-1.4299161493509978,-0.7646842563987958,-0.8967418768596748,-0.8646811488830268,0.025490777356234715,-0.10597361696040901,-0.05792169452823278,-0.5725094622359945,-0.6701615963782923,-0.6329051002896273,5.0,0.0,27.0
0.3644383636092389,0.08957940168696082,0.23227993553662915,-1.4299161493509978,-0.7646842563987958,-0.8967418768596748,-0.8646811488830268,0.025490777356234715,-0.04661388130497531,-0.036436058227188164,-0.5725094622359945,-0.6701615963782923,-0.6329051002896273,5.0,0.0,27.0
0.3644383636092389,0.5507346227266573,0.38045728738845136,-1.4299161493509978,-0.7366361726575513,-0.8691452196672812,-0.8646811488830268,0.04640628698186316,-0.10597361696040901,-0.036436058227188164,-0.5883322899078247,-0.6701615963782923,-0.6329051002896273,5.0,0.0,27.0
0.2625450653028348,0.3662725343107787,0.33106483677117726,-1.4299161493509978,-0.7366361726575513,-0.8691452196672812,-0.8646811488830268,0.025490777356234715,-0.10597361696040901,-0.036436058227188164,-0.5725094622359945,-0.6701615963782923,-0.6329051002896273,2.0,1.0,27.0
0.05875846869002652,-0.27934477514479633,-0.11346721878428932,-1.4299161493509978,-0.6805400051750624,-0.8139519052824934,-0.8059516910482923,-0.037255751520650644,-0.18511993116765396,-0.1223786034313667,-0.5883322899078247,-0.6856979727867378,-0.6329051002896273,2.0,1.0,27.0
0.16065176699643066,-0.09488268672891775,0.0021111156601321605,-1.4299161493509978,-0.652491921433818,-0.7863552480900995,-0.7765869621309249,0.46471647949443223,0.2699713755240044,0.3932766677937044,-0.6041551175796548,-0.7012343491951832,-0.6648807705636065,2.0,1.0,27.0
-0.043134829616377615,-0.0026516425209784644,-0.04728133495714191,-1.4299161493509978,-0.7646842563987958,-0.8967418768596748,-0.8646811488830268,1.2176748260170567,0.9822882033892089,1.1452739383302664,-0.39845835784586286,-0.48372507947694754,-0.44105107864575244,2.0,1.0,27.0
-0.043134829616377615,-0.27934477514479633,-0.1628596694015634,-1.4299161493509978,-0.652491921433818,-0.7863552480900995,-0.7765869621309249,1.2176748260170567,0.9625016248373975,1.1452739383302664,-0.41428118551769305,-0.5303342087022838,-0.47302674891973157,2.0,1.0,27.0
-0.043134829616377615,0.45850357851871804,0.18288748491935508,-1.4299161493509978,-0.652491921433818,-0.7863552480900995,-0.7765869621309249,1.2176748260170567,0.9822882033892089,1.1452739383302664,-0.41428118551769305,-0.5147978322938384,-0.47302674891973157,2.0,1.0,27.0
-0.043134829616377615,-0.27934477514479633,-0.14606623619169004,-1.4299161493509978,-1.0732131775524854,-1.200305105976007,-1.2170578958914344,0.9876042201351436,0.8042089964229077,0.9304175753198201,-0.33516704715854223,-0.43711595025161126,-0.39308757323478366,2.0,1.0,27.0
0.05875846869002652,0.7351967111425359,0.363663854178578,-1.4299161493509978,-1.0732131775524854,-1.1727084487836132,-1.1583284380566998,0.9457732008838867,0.7646358393192851,0.9089319390187756,-0.36681270250220255,-0.45265232666005667,-0.40907540837177325,2.0,1.0,27.0
0.05875846869002652,-0.18711373093685704,-0.09371023853737942,-1.4299161493509978,-1.0451650938112407,-1.1727084487836132,-1.1583284380566998,0.9457732008838867,0.744849260767474,0.8874463027177308,-0.36681270250220255,-0.4681887030685021,-0.42506324350876284,2.0,1.0,27.0
-0.043134829616377615,-0.27934477514479633,-0.17273815952501764,-1.4299161493509978,-0.42810725150386186,-0.5655819905509485,-0.5416691307919865,0.08823730623312007,-0.06640045985678657,0.0065352143749011,-0.6674464282669754,-0.7633798548289649,-0.7128442759745752,2.0,1.0,27.0
0.05875846869002652,-0.27934477514479633,-0.11346721878428932,-1.4299161493509978,-0.42810725150386186,-0.5655819905509485,-0.5123044018746191,0.08823730623312007,-0.06640045985678657,0.0065352143749011,-0.6674464282669754,-0.7633798548289649,-0.7128442759745752,2.0,1.0,27.0
-0.043134829616377615,-0.18711373093685704,-0.11346721878428932,-1.4299161493509978,-0.42810725150386186,-0.5655819905509485,-0.5123044018746191,0.0673217966074916,-0.08618703840859779,-0.014950421926143518,-0.6674464282669754,-0.7633798548289649,-0.7288321111115648,2.0,1.0,27.0
0.16065176699643066,0.45850357851871804,0.3972507205983247,-1.4299161493509978,-0.8207804238812848,-0.5379853333585548,-0.5416691307919865,-0.12091779002316447,-0.007040724201352851,-0.1223786034313667,-0.6990920836106357,-0.6080160907445107,-0.7128442759745752,2.0,1.0,27.0
-0.043134829616377615,-0.27934477514479633,-0.17273815952501764,-1.4299161493509978,-0.40005916776261735,-0.5379853333585548,-0.482939672957252,-0.058171261146279116,-0.20490650971946522,-0.14386423973241128,-0.6516236005951453,-0.7633798548289649,-0.7128442759745752,2.0,1.0,27.0
-0.34881472453559004,-0.46380686356067496,-0.42661535569780706,0.5255247386503538,0.4413833444747176,0.26231772522086716,0.3686374656463998,-1.1248622520533302,-1.2338085944136492,-1.2396316910856875,1.9749657929286595,1.8311950053814179,1.9571241919026836,2.0,1.0,27.0
-0.2469214262291859,-0.46380686356067496,-0.3930284892780604,0.5255247386503538,0.41333526073347315,0.26231772522086716,0.3686374656463998,-1.1039467424277019,-1.214022015861838,-1.2181460547846428,1.9907886206004899,1.846731381789863,1.9731120270396731,2.0,1.0,27.0
-0.2469214262291859,0.08957940168696082,0.04458862319098713,0.5255247386503538,0.41333526073347315,0.26231772522086716,0.3392727367290325,-1.0830312328020735,-1.1942354373100268,-1.196660418483598,2.0066114482723196,1.8622677581983087,1.9731120270396731,5.0,0.0,27.0
0.05875846869002652,-0.09488268672891775,0.017916699857659524,0.5255247386503538,0.41333526073347315,0.23472106802847328,0.3392727367290325,-1.0621157231764449,-1.1942354373100268,-1.196660418483598,2.0066114482723196,1.8622677581983087,1.9890998621766627,5.0,0.0,27.0
0.05875846869002652,-0.18711373093685704,-0.05419627804356101,0.5255247386503538,0.41333526073347315,0.26231772522086716,0.3392727367290325,-1.0621157231764449,-1.1744488587582156,-1.196660418483598,2.0224342759441503,1.8622677581983087,1.9890998621766627,5.0,0.0,27.0
0.05875846869002652,-0.18711373093685704,-0.06407476816701525,0.5255247386503538,0.38528717699222864,0.23472106802847328,0.3392727367290325,-1.0621157231764449,-1.1744488587582156,-1.1751747821825533,2.0224342759441503,1.8622677581983087,1.9890998621766627,5.0,0.0,27.0
0.46633166191564307,0.1818104458949001,0.33106483677117726,0.5255247386503538,0.38528717699222864,0.23472106802847328,0.3392727367290325,-1.0412002135508165,-1.1744488587582156,-1.1751747821825533,2.0066114482723196,1.8778041346067538,1.9890998621766627,0.0,0.0,27.0
0.16065176699643066,-0.09488268672891775,0.04458862319098713,-1.4299161493509978,-0.6244438376925734,-0.7587585908977056,-0.7472222332135576,0.29739240248940463,0.13146532566132577,0.2213915773853474,-0.6358007729233152,-0.7167707256036286,-0.680868605700596,2.0,1.0,27.0
-0.043134829616377615,-0.27934477514479633,-0.14606623619169004,-1.4299161493509978,-0.6244438376925734,-0.7587585908977056,-0.7472222332135576,0.29739240248940463,0.13146532566132577,0.2213915773853474,-0.619977945251485,-0.7167707256036286,-0.680868605700596,2.0,1.0,27.0
0.2625450653028348,-0.0026516425209784644,0.16313050467244516,2.480965626651705,-2.0268480247547984,4.015463103386432,0.5448258391506037,-2.8608495509804914,2.248629230705128,-0.6380338746564378,-0.9047888433444278,2.266213544817889,0.08654748087490352,0.0,0.0,27.0
0.2625450653028348,-0.0026516425209784644,0.15028846751195438,-1.4299161493509978,1.0023450192996077,0.869444183453532,0.9852967729111132,-1.6686655023196701,-1.7482596367607413,-1.8197438712138925,0.28192323204283354,0.16880272967775944,0.23043799710780963,0.0,0.0,27.0
0.9757981534476637,1.6575071532219288,1.1904934775117464,6.391847402654408,-2.6719539508034216,2.1388904143036496,-1.3932462693956384,-1.5640879541915278,4.52408576416342,0.414762304094749,-1.4269421565148224,1.2874218310858285,-0.05734303535800268,0.0,0.0,27.0
0.2625450653028348,0.9196587995584145,0.5582701096106377,-1.4299161493509978,-2.363425029649733,-0.09643881828025298,-0.3654807572877827,0.42288546024317536,2.070550023738827,1.2741877561365342,-0.5092181515486739,1.8311950053814179,-0.1372822110429506,0.0,0.0,27.0
-0.5526013211483983,-0.5560379077686143,-0.5372544450805008,0.5255247386503538,0.13285442332102812,-0.013648846703071415,0.0749901764727268,1.9915486821653092,1.7143916098062244,1.9402424814689174,-0.05035614906559961,-0.15746117489959408,-0.10530654076897143,0.0,0.0,27.0
-0.5526013211483983,-0.8327310403924322,-0.7061766261915782,0.5255247386503538,0.04871017209729463,-0.09643881828025298,-0.042468739196742426,1.8033090955346531,1.5165258242881121,1.7468717547595158,1.8325603438821882,1.691367617705409,1.8132336756697773,0.0,0.0,27.0
-0.8582812160676107,-0.8327310403924322,-0.8642324681668553,0.5255247386503538,0.04871017209729463,-0.09643881828025298,-0.042468739196742426,1.7823935859090247,1.5165258242881121,1.7468717547595158,1.8483831715540184,1.7069039941138546,1.8292215108067673,0.0,0.0,27.0
-0.4507080228419942,-0.7404999961844928,-0.60739172495703,0.5255247386503538,0.020662088356050098,-0.12403547547264687,-0.042468739196742426,1.8242246051602817,1.5560989813917347,1.7683573910605606,1.816737516210358,1.6758312412969638,1.797245840532788,0.0,0.0,27.0
-0.5526013211483983,-0.46380686356067496,-0.5086068237224819,0.5255247386503538,1.7596432803132092,1.5869572704557722,1.7781444536800304,-0.058171261146279116,-0.2246930882712764,-0.16534987603345594,-0.6041551175796548,-0.7012343491951832,-0.6648807705636065,1.0,1.0,27.0
-0.34881472453559004,-0.46380686356067496,-0.42661535569780706,0.5255247386503538,1.7596432803132092,1.6145539276481662,1.7781444536800304,-0.07908677077190758,-0.2246930882712764,-0.16534987603345594,-0.619977945251485,-0.7012343491951832,-0.6648807705636065,2.0,1.0,27.0
-0.2469214262291859,-0.46380686356067496,-0.3436360386607863,0.5255247386503538,1.7596432803132092,1.5869572704557722,1.7781444536800304,-0.07908677077190758,-0.24447966682308767,-0.16534987603345594,-0.6041551175796548,-0.7012343491951832,-0.6648807705636065,2.0,1.0,27.0
-0.34881472453559004,-0.27934477514479633,-0.2715230607595665,0.5255247386503538,1.7596432803132092,1.5869572704557722,1.748779724762663,-0.07908677077190758,-0.24447966682308767,-0.16534987603345594,-0.6041551175796548,-0.7012343491951832,-0.6648807705636065,2.0,1.0,27.0
-0.34881472453559004,-0.46380686356067496,-0.40982192248793375,0.5255247386503538,1.7596432803132092,1.5869572704557722,1.748779724762663,-0.07908677077190758,-0.24447966682308767,-0.16534987603345594,-0.6041551175796548,-0.7012343491951832,-0.6648807705636065,2.0,1.0,27.0
-0.2469214262291859,-0.46380686356067496,-0.39006494224102384,0.5255247386503538,-0.09153024660892785,1.6973438992253478,1.572591351258459,-0.5392279825357336,2.3277755449123725,0.2213915773853474,-0.8098518773134468,0.40184837580444044,-0.45703891378274203,1.0,1.0,27.0
-0.34881472453559004,-0.46380686356067496,-0.44242093989533443,0.5255247386503538,1.8437875315369427,1.6697472420329538,1.836873911514765,-0.6228900210382473,-0.7589307091701797,-0.7239764198606162,-0.44592684086135337,-0.5303342087022838,-0.48901458405672116,2.0,1.0,27.0
-0.4507080228419942,-0.37157581935273565,-0.44242093989533443,0.5255247386503538,2.1523164526906324,2.00090712834168,2.1598859296058053,0.318307912115033,0.11167874710951455,0.2213915773853474,-0.5092181515486739,-0.6080160907445107,-0.5529659246046793,2.0,1.0,27.0
-0.34881472453559004,-0.27934477514479633,-0.3110370212533856,0.5255247386503538,2.1523164526906324,1.9733104711492861,2.1892506585231724,0.27647689286377614,0.09189216855770332,0.19990594108430274,-0.5092181515486739,-0.6080160907445107,-0.5529659246046793,2.0,1.0,27.0
-0.2469214262291859,-0.46380686356067496,-0.3278304544632589,0.5255247386503538,2.1523164526906324,2.00090712834168,2.1892506585231724,0.27647689286377614,0.09189216855770332,0.17842030478325813,-0.5092181515486739,-0.5924797143360655,-0.5529659246046793,2.0,1.0,27.0
-0.14502812792278175,-0.27934477514479633,-0.24485113742623818,0.5255247386503538,2.1523164526906324,2.00090712834168,2.1892506585231724,0.27647689286377614,0.07210559000589208,0.17842030478325813,-0.5092181515486739,-0.5924797143360655,-0.5529659246046793,5.0,0.0,27.0
-0.14502812792278175,-0.37157581935273565,-0.24485113742623818,0.5255247386503538,2.1803645364318767,2.00090712834168,2.1892506585231724,0.29739240248940463,0.11167874710951455,0.19990594108430274,-0.5092181515486739,-0.5924797143360655,-0.5529659246046793,5.0,0.0,27.0
-0.14502812792278175,-0.27934477514479633,-0.22608200619167426,0.5255247386503538,2.1523164526906324,2.00090712834168,2.1892506585231724,0.29739240248940463,0.11167874710951455,0.19990594108430274,-0.5092181515486739,-0.5924797143360655,-0.5529659246046793,5.0,0.0,27.0
-0.14502812792278175,-0.27934477514479633,-0.21225212001883748,0.5255247386503538,2.1523164526906324,2.00090712834168,2.1892506585231724,0.29739240248940463,0.11167874710951455,0.19990594108430274,-0.5092181515486739,-0.5924797143360655,-0.5529659246046793,5.0,0.0,27.0
-0.34881472453559004,0.1818104458949001,-0.14606623619169004,0.5255247386503538,2.1523164526906324,2.00090712834168,2.1892506585231724,0.29739240248940463,0.11167874710951455,0.19990594108430274,-0.49339532387684365,-0.5924797143360655,-0.5529659246046793,2.0,1.0,27.0
-0.5526013211483983,-0.09488268672891775,-0.42661535569780706,0.5255247386503538,2.1803645364318767,2.00090712834168,2.1892506585231724,0.27647689286377614,0.09189216855770332,0.17842030478325813,-0.49339532387684365,-0.5924797143360655,-0.5529659246046793,2.0,1.0,27.0
-0.043134829616377615,-0.18711373093685704,-0.13026065199416267,0.5255247386503538,2.1803645364318767,2.00090712834168,2.1892506585231724,0.27647689286377614,0.09189216855770332,0.19990594108430274,-0.49339532387684365,-0.5924797143360655,-0.5529659246046793,2.0,1.0,27.0
-0.34881472453559004,-0.37157581935273565,-0.377222905080533,0.5255247386503538,2.1803645364318767,2.00090712834168,2.2186153874405394,0.27647689286377614,0.09189216855770332,0.19990594108430274,-0.49339532387684365,-0.5924797143360655,-0.5529659246046793,2.0,1.0,27.0
-0.34881472453559004,-0.46380686356067496,-0.40982192248793375,0.5255247386503538,2.1803645364318767,2.00090712834168,2.2186153874405394,0.27647689286377614,0.09189216855770332,0.19990594108430274,-0.49339532387684365,-0.5924797143360655,-0.5529659246046793,2.0,1.0,27.0
-0.34881472453559004,-0.37157581935273565,-0.42661535569780706,0.5255247386503538,2.1803645364318767,2.00090712834168,2.2186153874405394,0.27647689286377614,0.09189216855770332,0.19990594108430274,-0.49339532387684365,-0.5924797143360655,-0.5529659246046793,2.0,1.0,27.0
-0.2469214262291859,-0.46380686356067496,-0.3930284892780604,0.5255247386503538,2.1803645364318767,2.00090712834168,2.2186153874405394,0.29739240248940463,0.09189216855770332,0.19990594108430274,-0.49339532387684365,-0.5924797143360655,-0.5529659246046793,2.0,1.0,27.0
-0.34881472453559004,-0.5560379077686143,-0.4592143731052078,0.5255247386503538,2.1803645364318767,2.00090712834168,2.2186153874405394,0.29739240248940463,0.09189216855770332,0.19990594108430274,-0.49339532387684365,-0.5924797143360655,-0.5529659246046793,3.0,1.0,27.0
-0.043134829616377615,-0.09488268672891775,-0.0808682013768886,0.5255247386503538,2.1803645364318767,2.00090712834168,2.2186153874405394,0.27647689286377614,0.09189216855770332,0.19990594108430274,-0.49339532387684365,-0.5924797143360655,-0.5529659246046793,2.0,1.0,27.0
-0.14502812792278175,-0.27934477514479633,-0.2784380038459849,0.5255247386503538,2.1803645364318767,2.00090712834168,2.1892506585231724,0.29739240248940463,0.09189216855770332,0.19990594108430274,-0.49339532387684365,-0.5924797143360655,-0.5529659246046793,3.0,1.0,27.0
-0.34881472453559004,-0.27934477514479633,-0.42661535569780706,0.5255247386503538,0.3011429257684951,0.15193109645129171,0.22181382105956327,0.29739240248940463,0.11167874710951455,0.19990594108430274,-0.7623833942979563,-0.8721344896880826,-0.8247591219335022,2.0,1.0,27.0
-0.34881472453559004,-0.46380686356067496,-0.40982192248793375,0.5255247386503538,1.2267296892295638,1.062620783800289,1.1908498753326842,-0.2045798285256783,-0.36319913813395505,-0.2942636938397237,-0.6990920836106357,-0.7944526076458556,-0.7448199462485542,2.0,1.0,27.0
-0.4507080228419942,-0.37157581935273565,-0.42661535569780706,0.5255247386503538,1.1425854380058302,1.0074274694155012,1.1321204174979496,-0.2045798285256783,-0.3434125595821438,-0.2942636938397237,-0.7149149112824658,-0.7944526076458556,-0.7608077813855438,5.0,0.0,27.0
-0.4507080228419942,-0.37157581935273565,-0.4592143731052078,0.5255247386503538,1.1145373542645856,0.9522341550307135,1.1027556885805823,-0.2045798285256783,-0.3434125595821438,-0.2942636938397237,-0.7149149112824658,-0.809988984054301,-0.7608077813855438,5.0,0.0,27.0
-0.34881472453559004,-0.09488268672891775,-0.2517660805126566,0.5255247386503538,1.086489270523341,0.9246374978383196,1.0440262307458477,-0.2045798285256783,-0.3434125595821438,-0.2942636938397237,-0.7149149112824658,-0.809988984054301,-0.7767956165225334,5.0,0.0,27.0
1.5871579432860885,1.6575071532219288,1.714053454054851,0.5255247386503538,1.0584411867820966,0.8970408406459258,1.0146615018284806,-0.2045798285256783,-0.32362598103033263,-0.2942636938397237,-0.730737738954296,-0.809988984054301,-0.7767956165225334,5.0,0.0,27.0
-0.14502812792278175,-0.37157581935273565,-0.24485113742623818,0.5255247386503538,1.0303931030408522,0.869444183453532,0.9852967729111132,-0.2254953381513067,-0.36319913813395505,-0.31574933014076834,-0.7149149112824658,-0.809988984054301,-0.7767956165225334,5.0,0.0,27.0
1.179584750060472,0.8274277553504752,1.0225591454130143,2.480965626651705,-1.1854055125174634,-0.5931786477433424,-0.9527753356351287,-0.748383078792018,2.169482916497883,1.1452739383302664,-0.6041551175796548,0.9922306793253658,-0.24919705700187755,0.0,0.0,28.0
0.3644383636092389,0.1818104458949001,0.2619154059069933,0.5255247386503538,-1.4658863499299084,0.8418475262611381,-0.8059516910482923,-1.3967638771865003,1.1207942532518875,0.4577335766968383,-0.9680801540317484,-0.15746117489959408,-0.568953759741669,0.0,0.0,28.0
0.16065176699643066,-0.0026516425209784644,0.06730915047493359,0.5255247386503538,-0.989068926328752,-1.1175151343988259,-1.0995989802219654,0.8621111623813729,0.665702946560229,0.8015037575135523,-0.4617496685331835,-0.5458705851107292,-0.5050024191937108,2.0,1.0,28.0
-0.5526013211483983,-0.37157581935273565,-0.40982192248793375,0.5255247386503538,-0.9610208425875075,-1.1175151343988259,-1.0995989802219654,0.9248576912582582,0.7052761036638515,0.8659606664166862,-0.44592684086135337,-0.5303342087022838,-0.48901458405672116,2.0,1.0,28.0
-0.2469214262291859,-0.27934477514479633,-0.17965310261143674,0.5255247386503538,-0.989068926328752,-1.1175151343988259,-1.0995989802219654,0.9248576912582582,0.7052761036638515,0.8444750301156416,-0.4301040131895232,-0.5303342087022838,-0.48901458405672116,2.0,1.0,28.0
-0.34881472453559004,-0.0026516425209784644,-0.13026065199416267,0.5255247386503538,-0.989068926328752,-1.1175151343988259,-1.0995989802219654,0.9248576912582582,0.7052761036638515,0.8444750301156416,-0.4301040131895232,-0.5303342087022838,-0.48901458405672116,2.0,1.0,28.0
-0.043134829616377615,-0.18711373093685704,-0.09667378557441597,0.5255247386503538,-0.989068926328752,-1.1175151343988259,-1.0995989802219654,0.9248576912582582,0.7250626822156628,0.8659606664166862,-0.4301040131895232,-0.5303342087022838,-0.47302674891973157,3.0,1.0,28.0
0.16065176699643066,0.1818104458949001,0.19968091812922845,0.5255247386503538,-0.9610208425875075,-1.0899184772064319,-1.0995989802219654,1.0294352393864004,0.823995574974719,0.9733888479219094,-0.39845835784586286,-0.49926145588539295,-0.45703891378274203,2.0,1.0,28.0
0.16065176699643066,0.2740414901028394,0.2619154059069933,0.5255247386503538,-0.9610208425875075,-1.0899184772064319,-1.0995989802219654,1.050350749012029,0.823995574974719,0.994874484222954,-0.39845835784586286,-0.49926145588539295,-0.44105107864575244,3.0,1.0,28.0
0.6701182585284513,0.3662725343107787,0.5286346392402735,0.5255247386503538,-0.9610208425875075,-1.0899184772064319,-1.0995989802219654,1.050350749012029,0.8437821535265302,0.994874484222954,-0.39845835784586286,-0.49926145588539295,-0.44105107864575244,3.0,1.0,28.0
0.5682249602220472,0.2740414901028394,0.46244875541312613,0.5255247386503538,-0.9610208425875075,-1.0899184772064319,-1.0995989802219654,1.050350749012029,0.8437821535265302,0.994874484222954,-0.39845835784586286,-0.49926145588539295,-0.44105107864575244,3.0,1.0,28.0
0.5682249602220472,0.5507346227266573,0.6274195404748217,0.5255247386503538,-1.0171170100699962,-1.1451117915912197,-1.1289637091393327,0.6111250468738315,0.42826400393849423,0.5436761219010169,-0.49339532387684365,-0.5924797143360655,-0.53697808946769,2.0,1.0,28.0
0.3644383636092389,0.2740414901028394,0.33106483677117726,0.5255247386503538,-1.0171170100699962,-1.1451117915912197,-1.1289637091393327,0.6320405564994599,0.4480505824903055,0.5651617582020614,-0.49339532387684365,-0.57694333792762,-0.53697808946769,2.0,1.0,28.0
0.9757981534476637,0.6429656669345966,0.7953538725735538,0.5255247386503538,-1.5219825174123973,1.090217440992683,-1.1289637091393327,-0.6647210402895043,1.7143916098062244,0.414762304094749,-0.9839029817035783,0.0600480948186416,-0.48901458405672116,3.0,1.0,28.0
0.8739048551412596,0.8274277553504752,0.9563732615858668,0.5255247386503538,-0.9610208425875075,-1.1175151343988259,-1.0995989802219654,0.23464587361251923,0.07210559000589208,0.15693466848221352,-0.525040979220504,-0.6235524671529561,-0.5849415948786585,2.0,1.0,28.0
0.7720115568348555,0.6429656669345966,0.7262044417093698,0.5255247386503538,-1.0732131775524854,-1.200305105976007,-1.1876931669740671,0.17189934473563387,0.03253243290226961,0.09247775957907961,-0.49339532387684365,-0.5924797143360655,-0.53697808946769,1.0,1.0,28.0
0.7720115568348555,0.7351967111425359,0.755839912079734,0.5255247386503538,-1.0732131775524854,-1.227901763168401,-1.2170578958914344,1.0294352393864004,0.8042089964229077,0.9519032116208647,-0.35098987483037236,-0.45265232666005667,-0.40907540837177325,3.0,1.0,28.0
1.179584750060472,1.104120887974293,1.1312225367710167,0.5255247386503538,-0.989068926328752,-1.1175151343988259,-1.0995989802219654,0.820280143130116,0.6261297894566067,0.7585324849114631,-0.4617496685331835,-0.5458705851107292,-0.5050024191937108,2.0,1.0,28.0
1.2814780483668762,0.8274277553504752,1.0719515960302883,0.5255247386503538,-0.9610208425875075,-1.0899184772064319,-1.0995989802219654,0.7575336142532305,0.5667700538011728,0.6940755760083291,-0.4775724962050137,-0.57694333792762,-0.53697808946769,2.0,1.0,28.0
0.7720115568348555,0.6429656669345966,0.7094110084994965,0.5255247386503538,-1.0451650938112407,-1.1727084487836132,-1.1876931669740671,-0.3091573766538206,-0.46213203089301125,-0.4231775116459915,-0.4301040131895232,-0.5147978322938384,-0.47302674891973157,2.0,1.0,28.0
1.0776914517540679,1.0118898437663537,1.0719515960302883,0.5255247386503538,-1.1012612612937298,-1.227901763168401,-1.2170578958914344,0.29739240248940463,0.13146532566132577,0.2213915773853474,-0.49339532387684365,-0.57694333792762,-0.53697808946769,2.0,1.0,28.0
0.9757981534476637,1.0118898437663537,1.005765712203141,0.5255247386503538,-1.0171170100699962,-1.1451117915912197,-1.1583284380566998,0.1928148543612623,0.012745854350458385,0.11396339588012425,-0.525040979220504,-0.6080160907445107,-0.568953759741669,3.0,1.0,28.0
1.179584750060472,1.104120887974293,1.104550613437689,0.5255247386503538,-1.0451650938112407,-1.1727084487836132,-1.1876931669740671,0.3810544409919184,0.2106116398685707,0.3073341225895259,-0.49339532387684365,-0.5924797143360655,-0.5529659246046793,2.0,1.0,28.0
1.3833713466732802,1.104120887974293,1.3189138491166585,0.5255247386503538,-1.0451650938112407,-1.1727084487836132,-1.1583284380566998,0.40196995061754687,0.2106116398685707,0.3073341225895259,-0.49339532387684365,-0.6080160907445107,-0.5529659246046793,2.0,1.0,28.0
1.0776914517540679,1.104120887974293,1.055158162820415,0.5255247386503538,-1.157357428776219,-1.2830950775531889,-1.275787353726169,0.8621111623813729,0.665702946560229,0.8015037575135523,-0.3826355301740327,-0.4681887030685021,-0.42506324350876284,2.0,1.0,28.0
1.179584750060472,0.8274277553504752,1.0521946157833784,0.5255247386503538,-0.8488285076225294,-0.9795318484368564,-0.9527753356351287,0.40196995061754687,0.23039821842038197,0.3288197588905705,-0.5725094622359945,-0.6546252199698469,-0.6169172651526377,2.0,1.0,28.0
1.0776914517540679,0.9196587995584145,1.005765712203141,0.5255247386503538,-0.48420341898635094,-0.6483719621281302,-0.6003985886267211,0.46471647949443223,0.28975795407581567,0.3932766677937044,-0.6674464282669754,-0.7633798548289649,-0.7128442759745752,2.0,1.0,28.0
1.2814780483668762,0.9196587995584145,1.1509795170179264,0.5255247386503538,-0.54029958646884,-0.6759686193205241,-0.6297633175440884,-0.037255751520650644,-0.18511993116765396,-0.1223786034313667,-0.6358007729233152,-0.732307102012074,-0.6968564408375857,0.0,0.0,28.0
1.0776914517540679,1.0118898437663537,1.0719515960302883,0.5255247386503538,-0.4561553352451064,-0.5931786477433424,-0.5416691307919865,0.13006832548437697,-0.026827302753164087,0.049506486976990366,-0.6832692559388055,-0.7633798548289649,-0.7288321111115648,1.0,1.0,28.0
0.8739048551412596,0.7351967111425359,0.824989342943918,0.5255247386503538,-0.48420341898635094,-0.6207753049357363,-0.6003985886267211,-0.037255751520650644,-0.18511993116765396,-0.1223786034313667,-0.6516236005951453,-0.7478434784205195,-0.7128442759745752,2.0,1.0,28.0
0.9757981534476637,0.8274277553504752,0.9405676773883395,0.5255247386503538,-0.48420341898635094,-0.6207753049357363,-0.6003985886267211,-0.07908677077190758,-0.2246930882712764,-0.16534987603345594,-0.6516236005951453,-0.7478434784205195,-0.6968564408375857,2.0,1.0,28.0
1.0776914517540679,1.104120887974293,1.153943064054963,0.5255247386503538,-0.5122515027275955,-0.6207753049357363,-0.6003985886267211,-0.058171261146279116,-0.18511993116765396,-0.14386423973241128,-0.6516236005951453,-0.7478434784205195,-0.6968564408375857,2.0,1.0,28.0
1.2814780483668762,0.9196587995584145,1.111465556524108,0.5255247386503538,-0.48420341898635094,-0.6207753049357363,-0.6003985886267211,-0.058171261146279116,-0.20490650971946522,-0.14386423973241128,-0.6516236005951453,-0.7478434784205195,-0.6968564408375857,3.0,1.0,28.0
1.2814780483668762,1.380814020598111,1.3021204159067854,0.5255247386503538,-0.5683476702100844,-0.7035652765129179,-0.688492775378823,-0.100002280397536,-0.2246930882712764,-0.18683551233450058,-0.619977945251485,-0.7167707256036286,-0.680868605700596,3.0,1.0,28.0
1.0776914517540679,1.0118898437663537,0.9899601280056135,0.5255247386503538,-0.5683476702100844,-0.7035652765129179,-0.688492775378823,-0.5183124729101051,-0.6402112378593123,-0.6165482383553931,-0.525040979220504,-0.6235524671529561,-0.568953759741669,2.0,1.0,28.0
0.6701182585284513,1.0118898437663537,1.0719515960302883,0.5255247386503538,-0.5683476702100844,-0.7035652765129179,-0.6591280464614558,-0.5183124729101051,-0.6402112378593123,-0.6380338746564378,-0.525040979220504,-0.6235524671529561,-0.568953759741669,3.0,1.0,28.0
1.2814780483668762,0.8274277553504752,1.0719515960302883,0.5255247386503538,-0.6244438376925734,-0.7587585908977056,-0.7472222332135576,-0.6019745114126188,-0.6995709735147461,-0.7024907835595716,-0.4775724962050137,-0.57694333792762,-0.53697808946769,2.0,1.0,28.0
0.6701182585284513,0.8274277553504752,0.8911752267710654,0.5255247386503538,-0.5683476702100844,-0.7035652765129179,-0.6591280464614558,0.8830266720070012,0.6854895251120403,0.8229893938145969,-0.5725094622359945,-0.6701615963782923,-0.6329051002896273,3.0,1.0,28.0
1.179584750060472,0.8274277553504752,1.005765712203141,0.5255247386503538,-0.5683476702100844,-0.7035652765129179,-0.6591280464614558,0.8830266720070012,0.6854895251120403,0.8229893938145969,-0.5725094622359945,-0.6701615963782923,-0.6329051002896273,3.0,1.0,28.0
1.2814780483668762,0.8274277553504752,1.0719515960302883,0.5255247386503538,-0.5683476702100844,-0.7035652765129179,-0.6591280464614558,0.8830266720070012,0.6854895251120403,0.8229893938145969,-0.5725094622359945,-0.6701615963782923,-0.6329051002896273,3.0,1.0,28.0
1.179584750060472,0.8274277553504752,1.0225591454130143,0.5255247386503538,-0.5683476702100844,-0.6759686193205241,-0.6591280464614558,0.7993646335044875,0.744849260767474,0.8229893938145969,-0.6674464282669754,-0.6701615963782923,-0.6329051002896273,3.0,1.0,28.0
0.7720115568348555,0.6429656669345966,0.8151108528204637,-1.4299161493509978,-0.5963957539513288,-0.7587585908977056,-0.7178575042961903,-1.6059189734427848,-1.6888999011053076,-1.7552869623107585,0.96230482193153,0.8368669152409118,0.9179149079983613,2.0,1.0,28.0
0.8739048551412596,0.6429656669345966,0.7953538725735538,-1.4299161493509978,-0.5963957539513288,-0.7311619337053117,-0.688492775378823,-1.6059189734427848,-1.7086864796571188,-1.7552869623107585,0.9306591665878696,0.805794162424021,0.9019270728613716,2.0,1.0,28.0
0.9757981534476637,0.8274277553504752,1.0225591454130143,-1.4299161493509978,-0.5963957539513288,-0.7311619337053117,-0.688492775378823,-1.6059189734427848,-1.7086864796571188,-1.7552869623107585,0.9148363389160395,0.7902577860155756,0.8699514025873927,2.0,1.0,28.0
1.7909445398988968,1.6575071532219288,1.802959865165945,-1.4299161493509978,-0.5963957539513288,-0.7311619337053117,-0.688492775378823,-1.6268344830684132,-1.7086864796571188,-1.7552869623107585,0.9148363389160395,0.7902577860155756,0.8699514025873927,5.0,0.0,28.0
1.892837838205301,1.5652761090139895,1.7634459046721254,0.5255247386503538,-0.6244438376925734,-0.7863552480900995,-0.7472222332135576,-1.3340173483096147,-1.4316743799317615,-1.4759736903971783,0.04458081696538137,-0.06424291644892158,0.006608305189955673,5.0,0.0,28.0
1.6890512415924928,1.5652761090139895,1.6449040231906673,0.5255247386503538,-0.652491921433818,-0.7035652765129179,-0.688492775378823,-1.3340173483096147,-0.14554677406403146,-0.9603184191721073,-0.6990920836106357,-0.06424291644892158,-0.37709973809779407,5.0,0.0,28.0
1.4852646449796845,1.0118898437663537,1.2695213984993845,0.5255247386503538,-0.5122515027275955,-0.6483719621281302,-0.6297633175440884,-0.6228900210382473,-0.7391441306183685,-0.7239764198606162,-0.5092181515486739,-0.6080160907445107,-0.5529659246046793,5.0,0.0,28.0
1.179584750060472,1.380814020598111,1.2300074380055648,0.5255247386503538,-0.652491921433818,-0.6483719621281302,-0.6591280464614558,-1.1039467424277019,-0.6599978164111235,-0.7454620561616608,-0.5092181515486739,-0.2196066805333756,-0.53697808946769,2.0,1.0,28.0
1.0776914517540679,0.7351967111425359,0.9069808109685927,0.5255247386503538,-0.7927323401400403,-0.8967418768596748,-0.8940458778003941,-0.2464108477769352,-0.36319913813395505,-0.33723496644181294,-0.5408638068923342,-0.6390888435614015,-0.6009294300156481,2.0,1.0,28.0
0.8739048551412596,0.6429656669345966,0.824989342943918,0.5255247386503538,-0.6805400051750624,-0.7863552480900995,-0.7765869621309249,-0.2464108477769352,-0.3829857166857663,-0.33723496644181294,-0.5725094622359945,-0.6701615963782923,-0.6329051002896273,2.0,1.0,28.0
0.46633166191564307,0.5507346227266573,0.5977840701044576,0.5255247386503538,-0.652491921433818,-0.7863552480900995,-0.7765869621309249,-0.3509883959050774,-0.4819186094448225,-0.44466314794703604,-0.5566866345641643,-0.6390888435614015,-0.6009294300156481,2.0,1.0,28.0
0.6701182585284513,0.45850357851871804,0.5582701096106377,0.5255247386503538,-0.652491921433818,-0.7311619337053117,-0.7472222332135576,-0.8529606269201604,-0.5017051879966337,-0.4876344205491253,-0.5566866345641643,-0.5458705851107292,-0.6009294300156481,1.0,1.0,28.0
0.5682249602220472,0.2740414901028394,0.4298497380057254,0.5255247386503538,-0.6805400051750624,-0.8139519052824934,-0.8059516910482923,-0.49739696328447663,-0.620424659307501,-0.5950626020543485,-0.5092181515486739,-0.5924797143360655,-0.5529659246046793,2.0,1.0,28.0
0.6701182585284513,0.6429656669345966,0.662982104919259,0.5255247386503538,-0.6805400051750624,-0.8139519052824934,-0.8059516910482923,-0.49739696328447663,-0.620424659307501,-0.5950626020543485,-0.49339532387684365,-0.5924797143360655,-0.5529659246046793,2.0,1.0,28.0
0.6701182585284513,0.3662725343107787,0.5454280724501469,0.5255247386503538,-0.8207804238812848,-0.9519351912444625,-0.9527753356351287,0.42288546024317536,0.25018479697219315,0.3503053951916152,-0.5725094622359945,-0.6701615963782923,-0.6329051002896273,2.0,1.0,28.0
0.6701182585284513,0.45850357851871804,0.6106261072649484,0.5255247386503538,-0.8207804238812848,-0.9519351912444625,-0.9234106067177614,0.40196995061754687,0.23039821842038197,0.3288197588905705,-0.5725094622359945,-0.6701615963782923,-0.6329051002896273,2.0,1.0,28.0
0.5682249602220472,0.45850357851871804,0.5612336566476743,0.5255247386503538,-0.8207804238812848,-0.9519351912444625,-0.9234106067177614,0.3810544409919184,0.2106116398685707,0.3288197588905705,-0.5725094622359945,-0.6701615963782923,-0.6329051002896273,3.0,1.0,28.0
0.6701182585284513,0.5507346227266573,0.5612336566476743,0.5255247386503538,-0.8207804238812848,-0.9519351912444625,-0.9234106067177614,0.3810544409919184,0.2106116398685707,0.3073341225895259,-0.5725094622359945,-0.6701615963782923,-0.6329051002896273,3.0,1.0,28.0
-0.14502812792278175,0.2740414901028394,0.1008960168946803,-1.4299161493509978,0.9742969355583633,0.8142508690687443,0.9265673150763786,-1.3967638771865003,-1.5108206941390065,-1.5404305993003122,1.705977722507547,1.5670766064378459,1.6693431594368713,2.0,1.0,28.0
0.3644383636092389,0.1818104458949001,0.2816723861539032,-1.4299161493509978,0.7779603493696516,0.6210742687219872,0.7210142126548075,-1.6059189734427848,-1.6888999011053076,-1.7552869623107585,1.4686353074300948,1.3340309603111649,1.4295256323820276,2.0,1.0,28.0
0.46633166191564307,0.7351967111425359,0.4792421886229995,-1.4299161493509978,0.21699867454476163,0.6210742687219872,0.5741905680679709,-1.7314120311965553,-0.6599978164111235,-1.604887508203446,1.294584203039963,2.235140792000998,1.5574283134779443,2.0,1.0,28.0
0.2625450653028348,0.1818104458949001,0.133495034302081,-1.4299161493509978,0.5255275956984512,0.34510769679804876,0.4567316523985017,-1.5222569349402708,-1.6295401654498738,-1.6693444171065799,1.579395101132906,1.4427855951702826,1.5414404783409545,2.0,1.0,28.0
0.3644383636092389,0.45850357851871804,0.44664317121559877,-1.4299161493509978,0.5255275956984512,0.37270435399044255,0.48609638131586896,-1.5013414253146424,-1.5899670083462514,-1.6263731445044907,1.6268635841483965,1.489394724395619,1.5894039837519234,2.0,1.0,28.0
0.16065176699643066,0.08957940168696082,0.1008960168946803,-1.4299161493509978,0.4974795119572067,0.34510769679804876,0.4567316523985017,-1.5850034638171562,-1.6691133225534964,-1.7338013260097138,1.5002809627737552,1.3651037131280557,1.4774891377929962,2.0,1.0,28.0
0.2625450653028348,0.45850357851871804,0.3478582699810506,-1.4299161493509978,0.5255275956984512,0.34510769679804876,0.4567316523985017,-1.5850034638171562,-1.6888999011053076,-1.7338013260097138,1.484458135101925,1.3495673367196104,1.4615013026560066,2.0,1.0,28.0
0.16065176699643066,0.1818104458949001,0.202644465166265,0.5255247386503538,-0.0634821628676834,0.8418475262611381,0.6035552969853382,-1.5222569349402708,-0.18511993116765396,-1.433002417795089,1.579395101132906,2.266213544817889,1.7173066648478397,2.0,1.0,28.0
0.2625450653028348,0.1818104458949001,0.21548650232675579,-1.4299161493509978,0.38528717699222864,0.2071244108360794,0.30990800781166516,-1.4804259156890138,-1.5701804297944402,-1.604887508203446,1.6426864118202262,1.5049311008040642,1.605391818888913,2.0,1.0,28.0
0.3644383636092389,0.3662725343107787,0.3478582699810506,-1.4299161493509978,0.38528717699222864,0.2071244108360794,0.30990800781166516,-1.4804259156890138,-1.5701804297944402,-1.6263731445044907,1.6426864118202262,1.489394724395619,1.605391818888913,2.0,1.0,28.0
0.8739048551412596,0.7351967111425359,0.8417827761537913,-1.4299161493509978,0.3011429257684951,0.15193109645129171,0.22181382105956327,-1.5640879541915278,-1.6691133225534964,-1.712315689708669,1.5161037904455854,1.3806400895365012,1.493476972929986,5.0,0.0,28.0
1.0776914517540679,1.1963519321822325,1.1707364972648364,-1.4299161493509978,0.3011429257684951,0.15193109645129171,0.22181382105956327,-1.5640879541915278,-1.649326744001685,-1.712315689708669,1.5161037904455854,1.3806400895365012,1.493476972929986,5.0,0.0,28.0
1.179584750060472,1.0118898437663537,1.085781482203125,-1.4299161493509978,0.27309484202725065,0.096737782066504,0.192449092142196,-1.250355309807101,-1.3723146442763279,-1.3900311451929996,1.8483831715540184,1.7069039941138546,1.8132336756697773,5.0,0.0,28.0
1.0776914517540679,0.9196587995584145,1.0521946157833784,-1.4299161493509978,0.27309484202725065,0.096737782066504,0.192449092142196,-1.2712708194327293,-1.3723146442763279,-1.3900311451929996,1.8483831715540184,1.691367617705409,1.8132336756697773,5.0,0.0,28.0
0.3644383636092389,1.0118898437663537,0.5612336566476743,0.5255247386503538,-0.7085880889163071,-0.8415485624748873,-0.8059516910482923,1.092181768263286,0.8635687320783414,1.0163601205239987,-0.4775724962050137,-0.57694333792762,-0.53697808946769,1.0,1.0,28.0
0.5682249602220472,0.7351967111425359,0.755839912079734,0.5255247386503538,-0.7085880889163071,-0.8415485624748873,-0.8059516910482923,1.1130972778889143,0.8833553106301526,1.059331393126088,-0.4617496685331835,-0.5614069615191746,-0.5209902543307003,2.0,1.0,28.0
0.3644383636092389,0.45850357851871804,0.49603562183287286,0.5255247386503538,-0.7085880889163071,-0.8415485624748873,-0.8353164199656596,1.1340127875145427,0.9031418891819638,1.059331393126088,-0.4617496685331835,-0.5614069615191746,-0.5050024191937108,2.0,1.0,28.0
0.5682249602220472,0.8274277553504752,0.6442129736846951,0.5255247386503538,-0.7085880889163071,-0.8415485624748873,-0.8353164199656596,1.1549282971401713,0.9229284677337751,1.0808170294271324,-0.44592684086135337,-0.5458705851107292,-0.5050024191937108,2.0,1.0,28.0
0.7720115568348555,0.6429656669345966,0.7094110084994965,0.5255247386503538,-0.7085880889163071,-0.8415485624748873,-0.8353164199656596,1.1549282971401713,0.9427150462855863,1.102302665728177,-0.44592684086135337,-0.5458705851107292,-0.5050024191937108,2.0,1.0,28.0
0.6701182585284513,0.45850357851871804,0.5977840701044576,0.5255247386503538,-0.7085880889163071,-0.8415485624748873,-0.8353164199656596,1.1549282971401713,0.9427150462855863,1.102302665728177,-0.44592684086135337,-0.5303342087022838,-0.48901458405672116,2.0,1.0,28.0
0.2625450653028348,0.5507346227266573,0.6274195404748217,0.5255247386503538,-1.0732131775524854,-1.200305105976007,-1.2170578958914344,0.778449123878859,0.5667700538011728,0.7155612123093739,-0.4301040131895232,-0.5303342087022838,-0.47302674891973157,2.0,1.0,28.0
0.5682249602220472,0.5507346227266573,0.5780270898575476,0.5255247386503538,-1.0732131775524854,-1.200305105976007,-1.2170578958914344,0.778449123878859,0.5865566323529842,0.7155612123093739,-0.4301040131895232,-0.5303342087022838,-0.48901458405672116,2.0,1.0,28.0
0.5682249602220472,0.5507346227266573,0.5780270898575476,0.5255247386503538,-1.0732131775524854,-1.200305105976007,-1.1876931669740671,0.778449123878859,0.5865566323529842,0.7155612123093739,-0.4301040131895232,-0.5303342087022838,-0.48901458405672116,2.0,1.0,28.0
0.46633166191564307,0.5507346227266573,0.4792421886229995,0.5255247386503538,-1.0732131775524854,-1.200305105976007,-1.1876931669740671,0.7993646335044875,0.5865566323529842,0.7155612123093739,-0.4301040131895232,-0.5303342087022838,-0.48901458405672116,2.0,1.0,28.0
1.0776914517540679,0.7351967111425359,0.9138957540550119,0.5255247386503538,-1.0732131775524854,-1.200305105976007,-1.1876931669740671,0.778449123878859,0.5865566323529842,0.7155612123093739,-0.4301040131895232,-0.5303342087022838,-0.48901458405672116,2.0,1.0,28.0
1.2814780483668762,1.0118898437663537,1.1707364972648364,0.5255247386503538,-1.0732131775524854,-1.200305105976007,-1.1876931669740671,0.778449123878859,0.5865566323529842,0.7155612123093739,-0.4301040131895232,-0.5303342087022838,-0.48901458405672116,2.0,1.0,28.0
1.179584750060472,0.8274277553504752,1.055158162820415,0.5255247386503538,-1.0732131775524854,-1.200305105976007,-1.1876931669740671,0.778449123878859,0.5865566323529842,0.7155612123093739,-0.4301040131895232,-0.5303342087022838,-0.48901458405672116,5.0,0.0,28.0
1.2814780483668762,2.7642796837172003,1.8790242391165468,0.5255247386503538,-0.9049246751050184,-1.0071285056292503,-1.0115047934698633,0.1928148543612623,0.07210559000589208,0.15693466848221352,-0.5566866345641643,-0.6546252199698469,-0.6169172651526377,0.0,0.0,28.0
0.7720115568348555,0.8274277553504752,0.755839912079734,0.5255247386503538,-0.8768765913637739,-1.0071285056292503,-0.9821400645524961,0.29739240248940463,0.13146532566132577,0.2213915773853474,-0.5725094622359945,-0.6546252199698469,-0.6169172651526377,2.0,1.0,28.0
0.8739048551412596,0.7351967111425359,0.824989342943918,0.5255247386503538,-0.932972758846263,-1.062321820014038,-1.0408695223872308,0.42288546024317536,0.23039821842038197,0.3288197588905705,-0.5408638068923342,-0.6390888435614015,-0.6009294300156481,2.0,1.0,28.0
0.3644383636092389,0.6429656669345966,0.594820523067421,0.5255247386503538,-0.8488285076225294,-1.0071285056292503,-0.9821400645524961,0.48563198912006067,0.3095445326276269,0.414762304094749,-0.5566866345641643,-0.6546252199698469,-0.6169172651526377,2.0,1.0,28.0
0.7720115568348555,1.9342002858457468,1.104550613437689,0.5255247386503538,-1.2415016799999525,0.15193109645129171,-0.482939672957252,-1.8778205985759546,0.36890426828306055,-1.261117327386732,-0.5725094622359945,1.0854489377760383,-0.07333087049499226,0.0,0.0,28.0
1.2814780483668762,1.104120887974293,1.2863148317092579,0.5255247386503538,-0.34396300028012844,-0.482792018973767,-0.42421021512251733,-1.3549328579352433,-1.4514609584835727,-1.4759736903971783,-0.06617897673742978,-0.1729975513080395,-0.10530654076897143,0.0,0.0,28.0
1.2814780483668762,0.9196587995584145,1.104550613437689,-1.4299161493509978,0.10480633957978361,-0.06884216108785918,0.016260718637992146,-0.5392279825357336,-0.6797843949629347,-0.6595195109574824,2.2281310356779422,2.079777027916544,2.1969417189575275,0.0,0.0,28.0
1.2814780483668762,1.0118898437663537,1.104550613437689,-1.4299161493509978,0.10480633957978361,-0.06884216108785918,0.016260718637992146,-0.560143492161362,-0.6995709735147461,-0.6595195109574824,2.212308208006112,2.064240651508099,2.1969417189575275,0.0,0.0,28.0
0.6701182585284513,0.3662725343107787,0.5385131293637279,0.5255247386503538,-0.54029958646884,-0.6759686193205241,-0.6297633175440884,0.46471647949443223,0.28975795407581567,0.3932766677937044,-0.6516236005951453,-0.7478434784205195,-0.7128442759745752,0.0,0.0,28.0
0.46633166191564307,0.5507346227266573,0.4792421886229995,0.5255247386503538,-0.5122515027275955,-0.6759686193205241,-0.6297633175440884,0.46471647949443223,0.2699713755240044,0.3932766677937044,-0.6516236005951453,-0.7478434784205195,-0.7128442759745752,2.0,1.0,28.0
0.8739048551412596,0.6429656669345966,0.7755968923266439,-1.4299161493509978,-0.23177066531515034,-0.4000020473965854,-0.3361160283704154,-0.7692985884176465,-0.8974367590328584,-0.8958615102689733,2.085725586631471,1.9244132638320903,2.053051202724621,0.0,0.0,28.0
0.3644383636092389,0.1818104458949001,0.2816723861539032,-1.4299161493509978,-0.25981874905639485,-0.4000020473965854,-0.3361160283704154,-0.8529606269201604,-0.9172233375846696,-0.8958615102689733,2.0540799312878106,1.9244132638320903,2.0370633675876313,1.0,1.0,28.0
0.6701182585284513,0.45850357851871804,0.6274195404748217,-1.4299161493509978,0.13285442332102812,-0.013648846703071415,0.0749901764727268,-0.9993691942995595,-1.1150891231027817,-1.1107178732794194,2.0224342759441503,1.8778041346067538,1.9890998621766627,0.0,0.0,28.0
0.5682249602220472,0.45850357851871804,0.5454280724501469,0.5255247386503538,-0.7366361726575513,-0.8691452196672812,-0.8646811488830268,0.36013893136629,0.17103848276494826,0.28584848628848125,-0.6041551175796548,-0.7012343491951832,-0.6488929354266169,0.0,0.0,28.0
-0.8582812160676107,-0.8327310403924322,-0.8049615274261263,2.480965626651705,-5.6730989111165835,3.21516004480701,-0.6297633175440884,-2.2124687525860094,2.189269495049694,0.4362479403957937,-0.920611671016258,1.846731381789863,-0.5050024191937108,0.0,0.0,11.0
-1.163961110986823,-1.2016552172241892,-1.1507086817470447,-1.4299161493509978,-0.5122515027275955,-0.5103886761661609,-0.5416691307919865,0.7157025950019736,1.1010076747000763,1.059331393126088,-0.6041551175796548,-0.5303342087022838,-0.568953759741669,0.0,0.0,11.0
-1.062067812680419,-1.10942417301625,-1.0845227979198973,-1.4299161493509978,-1.0451650938112407,-0.9243385340520686,-1.0702342513045981,-1.1876087809302156,-0.8578636019292358,-1.1107178732794194,-0.2718757364712217,-0.0176337872235854,-0.16925788131692962,0.0,0.0,11.0
-1.3677477075996314,-1.386117305640068,-1.4302699522408158,-1.4299161493509978,-0.40005916776261735,-0.5379853333585548,-0.482939672957252,0.778449123878859,0.5865566323529842,0.7155612123093739,-0.619977945251485,-0.7012343491951832,-0.6648807705636065,1.0,1.0,11.0
-1.2658544092932273,-1.386117305640068,-1.3650719174260144,-1.4299161493509978,-0.37201108402137295,-0.5103886761661609,-0.4535749440398847,0.820280143130116,0.6063432109047954,0.7370468486104185,-0.619977945251485,-0.7167707256036286,-0.680868605700596,2.0,1.0,11.0
-1.3677477075996314,-1.4783483498480072,-1.4796624028580898,-1.4299161493509978,-0.37201108402137295,-0.5103886761661609,-0.4535749440398847,0.820280143130116,0.6261297894566067,0.7585324849114631,-0.619977945251485,-0.7167707256036286,-0.680868605700596,2.0,1.0,11.0
-1.2658544092932273,-1.386117305640068,-1.3156794668087404,-1.4299161493509978,-0.37201108402137295,-0.5103886761661609,-0.4535749440398847,0.8621111623813729,0.6459163680084178,0.7800181212125078,-0.619977945251485,-0.7167707256036286,-0.6648807705636065,2.0,1.0,11.0
-1.163961110986823,-1.386117305640068,-1.298886033598867,-1.4299161493509978,-0.37201108402137295,-0.5103886761661609,-0.4535749440398847,0.8621111623813729,0.6459163680084178,0.7800181212125078,-0.619977945251485,-0.7167707256036286,-0.6648807705636065,2.0,1.0,11.0
-1.2658544092932273,-1.4783483498480072,-1.397670934833415,-1.4299161493509978,-0.37201108402137295,-0.5103886761661609,-0.4535749440398847,0.8621111623813729,0.6459163680084178,0.8015037575135523,-0.619977945251485,-0.7167707256036286,-0.6648807705636065,2.0,1.0,11.0
-1.2658544092932273,-1.4783483498480072,-1.397670934833415,-1.4299161493509978,-0.37201108402137295,-0.482792018973767,-0.4535749440398847,0.8621111623813729,0.6459163680084178,0.8015037575135523,-0.619977945251485,-0.7167707256036286,-0.6648807705636065,2.0,1.0,11.0
-1.3677477075996314,-1.4783483498480072,-1.4766988558210534,-1.4299161493509978,-0.37201108402137295,-0.5103886761661609,-0.4535749440398847,0.8621111623813729,0.6459163680084178,0.8015037575135523,-0.6041551175796548,-0.7167707256036286,-0.6648807705636065,2.0,1.0,11.0
-1.2658544092932273,-1.386117305640068,-1.3808775016235417,-1.4299161493509978,-0.37201108402137295,-0.5103886761661609,-0.4535749440398847,0.8621111623813729,0.665702946560229,0.8015037575135523,-0.6041551175796548,-0.7012343491951832,-0.6648807705636065,2.0,1.0,11.0
-1.2658544092932273,-1.4783483498480072,-1.397670934833415,-1.4299161493509978,-0.37201108402137295,-0.5103886761661609,-0.482939672957252,0.8621111623813729,0.6459163680084178,0.8015037575135523,-0.6041551175796548,-0.7012343491951832,-0.6648807705636065,3.0,1.0,11.0
-1.3677477075996314,-1.4783483498480072,-1.4638568186605625,-1.4299161493509978,-0.37201108402137295,-0.5103886761661609,-0.482939672957252,0.8621111623813729,0.6459163680084178,0.8015037575135523,-0.6041551175796548,-0.7012343491951832,-0.6648807705636065,3.0,1.0,11.0
-1.2658544092932273,-1.4783483498480072,-1.397670934833415,-1.4299161493509978,-0.37201108402137295,-0.5103886761661609,-0.482939672957252,0.8621111623813729,0.6459163680084178,0.8015037575135523,-0.6041551175796548,-0.7012343491951832,-0.6648807705636065,3.0,1.0,11.0
-0.9601745143740148,-1.10942417301625,-1.06871721372237,-1.4299161493509978,-0.37201108402137295,-0.5103886761661609,-0.482939672957252,0.8621111623813729,0.6459163680084178,0.8015037575135523,-0.6041551175796548,-0.7012343491951832,-0.6648807705636065,5.0,0.0,11.0
-0.8582812160676107,-0.27934477514479633,-0.7229700594014515,-1.4299161493509978,-0.40005916776261735,-0.5103886761661609,-0.482939672957252,0.8621111623813729,0.6459163680084178,0.7800181212125078,-0.6041551175796548,-0.7012343491951832,-0.6648807705636065,5.0,0.0,11.0
-0.5526013211483983,-0.7404999961844928,-0.6735776087841774,-1.4299161493509978,-0.40005916776261735,-0.5103886761661609,-0.482939672957252,0.820280143130116,0.6459163680084178,0.7800181212125078,-0.6041551175796548,-0.7012343491951832,-0.6648807705636065,5.0,0.0,11.0
-0.8582812160676107,-0.8327310403924322,-0.8869529954508011,-1.4299161493509978,-0.37201108402137295,-0.5103886761661609,-0.482939672957252,0.8621111623813729,0.6459163680084178,0.8015037575135523,-0.6041551175796548,-0.7012343491951832,-0.6648807705636065,2.0,1.0,11.0
-0.9601745143740148,-1.0171931288083107,-0.9857378966853492,-1.4299161493509978,-0.37201108402137295,-0.5103886761661609,-0.4535749440398847,0.8621111623813729,0.6459163680084178,0.8015037575135523,-0.6041551175796548,-0.7012343491951832,-0.6648807705636065,2.0,1.0,11.0
-1.062067812680419,-1.2938862614321287,-1.200101132364319,-1.4299161493509978,-0.34396300028012844,-0.482792018973767,-0.42421021512251733,0.9876042201351436,0.7844224178710965,0.9304175753198201,-0.5883322899078247,-0.6856979727867378,-0.6329051002896273,2.0,1.0,11.0
-0.7563879177612066,-1.0171931288083107,-0.9037464286606745,-1.4299161493509978,-0.34396300028012844,-0.482792018973767,-0.42421021512251733,0.9876042201351436,0.7646358393192851,0.9304175753198201,-0.5883322899078247,-0.6701615963782923,-0.6329051002896273,2.0,1.0,11.0
-0.9601745143740148,-1.10942417301625,-1.0519237805124966,-1.4299161493509978,-0.37201108402137295,-0.482792018973767,-0.4535749440398847,0.8830266720070012,0.6854895251120403,0.8229893938145969,-0.6041551175796548,-0.7012343491951832,-0.6648807705636065,2.0,1.0,11.0
-0.9601745143740148,-1.0171931288083107,-1.0351303473026232,-1.4299161493509978,-0.34396300028012844,-0.482792018973767,-0.4535749440398847,0.8830266720070012,0.6854895251120403,0.8229893938145969,-0.6041551175796548,-0.7012343491951832,-0.6648807705636065,2.0,1.0,11.0
-0.9601745143740148,-1.2016552172241892,-1.1013162311297706,-1.4299161493509978,-0.34396300028012844,-0.482792018973767,-0.4535749440398847,0.8830266720070012,0.6854895251120403,0.8229893938145969,-0.6041551175796548,-0.7012343491951832,-0.6648807705636065,2.0,1.0,11.0
-1.062067812680419,-1.2016552172241892,-1.1210732113766806,-1.4299161493509978,-0.34396300028012844,-0.482792018973767,-0.4535749440398847,0.8830266720070012,0.6854895251120403,0.8229893938145969,-0.6041551175796548,-0.7012343491951832,-0.6648807705636065,2.0,1.0,11.0
-1.062067812680419,-1.2938862614321287,-1.200101132364319,-1.4299161493509978,-0.34396300028012844,-0.482792018973767,-0.4535749440398847,0.8830266720070012,0.6854895251120403,0.8229893938145969,-0.6041551175796548,-0.7012343491951832,-0.6648807705636065,2.0,1.0,11.0
-0.8582812160676107,-1.0171931288083107,-0.9531388792779485,-1.4299161493509978,-0.34396300028012844,-0.482792018973767,-0.4535749440398847,0.8830266720070012,0.665702946560229,0.8229893938145969,-0.6041551175796548,-0.7167707256036286,-0.6648807705636065,2.0,1.0,11.0
-1.062067812680419,-1.10942417301625,-1.0845227979198973,-1.4299161493509978,-0.34396300028012844,-0.482792018973767,-0.42421021512251733,0.8830266720070012,0.665702946560229,0.8229893938145969,-0.6041551175796548,-0.7167707256036286,-0.6648807705636065,2.0,1.0,11.0
-0.9601745143740148,-1.10942417301625,-1.0222883101421325,-1.4299161493509978,-0.34396300028012844,-0.482792018973767,-0.4535749440398847,0.8830266720070012,0.665702946560229,0.8229893938145969,-0.6041551175796548,-0.7167707256036286,-0.6648807705636065,2.0,1.0,11.0
-0.9601745143740148,-1.2016552172241892,-1.1013162311297706,-1.4299161493509978,-0.40005916776261735,-0.482792018973767,-0.4535749440398847,0.8830266720070012,0.6854895251120403,0.8229893938145969,-0.619977945251485,-0.7012343491951832,-0.6648807705636065,3.0,1.0,11.0
-0.8582812160676107,-0.8327310403924322,-0.7881680942162529,-1.4299161493509978,-0.5963957539513288,-0.7311619337053117,-0.7178575042961903,0.08823730623312007,-0.08618703840859779,-0.014950421926143518,-0.619977945251485,-0.7167707256036286,-0.680868605700596,2.0,1.0,11.0
0.46633166191564307,0.3662725343107787,0.4594852083760896,-1.4299161493509978,-0.5963957539513288,-0.7311619337053117,-0.688492775378823,-0.037255751520650644,-0.16533335261584273,-0.10089296713032204,-0.6358007729233152,-0.7012343491951832,-0.6648807705636065,5.0,0.0,11.0
-0.6544946194548025,-0.27934477514479633,-0.4592143731052078,-1.4299161493509978,-0.652491921433818,-0.7863552480900995,-0.7472222332135576,-0.560143492161362,-0.6995709735147461,-0.6595195109574824,-0.4775724962050137,-0.5614069615191746,-0.5209902543307003,5.0,0.0,11.0
-0.7563879177612066,-0.6482689519765535,-0.7456905866853972,-1.4299161493509978,-0.652491921433818,-0.7863552480900995,-0.7765869621309249,-0.5810590017869904,-0.5214917665484449,-0.6595195109574824,-0.4775724962050137,-0.5614069615191746,-0.5209902543307003,5.0,0.0,11.0
-0.7563879177612066,-0.8327310403924322,-0.837560544833527,-1.4299161493509978,-0.6244438376925734,-0.7311619337053117,-0.7178575042961903,-0.5183124729101051,-0.6402112378593123,-0.6165482383553931,-0.49339532387684365,-0.5924797143360655,-0.5529659246046793,5.0,0.0,11.0
-0.8582812160676107,-1.10942417301625,-1.0025313298952225,-1.4299161493509978,-0.6244438376925734,-0.7587585908977056,-0.7178575042961903,-0.5183124729101051,-0.6402112378593123,-0.6165482383553931,-0.49339532387684365,-0.5924797143360655,-0.5529659246046793,2.0,1.0,11.0
-0.8582812160676107,-1.0171931288083107,-0.9699323124878219,-1.4299161493509978,-0.6244438376925734,-0.7311619337053117,-0.7178575042961903,-0.5183124729101051,-0.6402112378593123,-0.6165482383553931,-0.49339532387684365,-0.5924797143360655,-0.5529659246046793,2.0,1.0,11.0
-0.7563879177612066,-0.8327310403924322,-0.8217549606359996,-1.4299161493509978,-0.6244438376925734,-0.7311619337053117,-0.7178575042961903,-0.5183124729101051,-0.6402112378593123,-0.6165482383553931,-0.49339532387684365,-0.5924797143360655,-0.5529659246046793,2.0,1.0,11.0
-0.9601745143740148,-1.10942417301625,-1.0519237805124966,-1.4299161493509978,-0.6244438376925734,-0.7311619337053117,-0.7178575042961903,-0.5183124729101051,-0.6402112378593123,-0.6165482383553931,-0.49339532387684365,-0.5924797143360655,-0.5529659246046793,2.0,1.0,11.0
-0.8582812160676107,-1.0171931288083107,-0.9205398618705478,-1.4299161493509978,-0.6244438376925734,-0.7587585908977056,-0.7178575042961903,-0.5183124729101051,-0.6402112378593123,-0.6165482383553931,-0.5092181515486739,-0.5924797143360655,-0.5529659246046793,2.0,1.0,11.0
0.6701182585284513,1.9342002858457468,1.1904934775117464,-1.4299161493509978,0.3011429257684951,0.15193109645129171,0.2511785499769306,-0.28824186702819216,-0.4225588737893888,-0.3802062390439022,-0.7149149112824658,-0.7944526076458556,-0.7608077813855438,0.0,0.0,11.0
-0.8582812160676107,-0.09488268672891775,-0.7387756435989788,-1.4299161493509978,0.3291910095097397,0.17952775364368556,0.2511785499769306,-0.330072886279449,-0.4819186094448225,-0.4231775116459915,-0.6990920836106357,-0.809988984054301,-0.7608077813855438,2.0,1.0,11.0
-0.5526013211483983,-0.27934477514479633,-0.5935618387841932,-1.4299161493509978,-0.8488285076225294,-0.9243385340520686,-0.9234106067177614,-0.3509883959050774,-0.4423454523412,-0.4016918753449469,-0.5092181515486739,-0.5614069615191746,-0.5529659246046793,0.0,0.0,11.0
0.46633166191564307,0.7351967111425359,0.6906418772649325,0.5255247386503538,0.5816237631809402,2.387260329035194,2.482897947696846,-1.1457777616789588,2.3475621234641837,1.5964723006522037,-0.4775724962050137,0.8834760444662481,0.8699514025873927,0.0,0.0,11.0
-0.8582812160676107,-1.0171931288083107,-0.9235034089075843,0.5255247386503538,-0.989068926328752,-1.1451117915912197,-1.1289637091393327,-1.2294398001814724,-1.3525280657245164,-1.368545508891955,1.4211668244146043,1.302958207494274,1.3975499621080485,0.0,0.0,11.0
-1.062067812680419,-1.2016552172241892,-1.1299638524877895,0.5255247386503538,-0.9610208425875075,-1.0899184772064319,-1.0702342513045981,-1.0621157231764449,-1.1942354373100268,-1.196660418483598,1.6426864118202262,1.5204674772125097,1.6213796540259027,1.0,1.0,11.0
