Min_hr,Max_hr,Mean_hr,Men_acc_sqrt,Min_acc_x,Max_acc_x,Mean_acc_x,Min_acc_y,Max_acc_y,Mean_acc_y,Min_acc_z,Max_acc_z,Mean_acc_z,Etiquetas binarias,Etiquetas multiclase,ID
52.0,54.0,52.83,0.99,-0.01,-0.0,-0.0,0.36,0.37,0.37,-0.93,-0.92,-0.92,0.0,0.0,0.0
70.0,71.0,70.83,1.0,0.05,0.06,0.06,0.65,0.67,0.66,-0.75,-0.74,-0.75,0.0,0.0,19.0
72.0,75.0,73.6,1.0,0.03,0.04,0.04,0.79,0.81,0.8,-0.6,-0.59,-0.6,0.0,0.0,19.0
68.0,85.0,75.83,1.01,-0.37,0.33,-0.02,-0.79,0.22,-0.27,-0.59,1.16,0.85,0.0,0.0,25.0
77.0,85.0,79.4,1.01,-0.91,1.1,0.24,0.12,1.17,0.62,-0.95,0.86,-0.29,0.0,0.0,9.0
71.0,72.0,71.6,0.99,-0.31,-0.3,-0.3,0.23,0.27,0.25,-0.92,-0.91,-0.91,0.0,0.0,19.0
60.0,64.0,62.33,1.0,-0.38,-0.37,-0.38,-0.13,-0.13,-0.13,0.92,0.92,0.92,0.0,0.0,16.0
70.0,89.0,81.5,1.0,-0.6,-0.33,-0.42,0.3,0.65,0.46,-0.91,-0.67,-0.78,0.0,0.0,19.0
61.0,63.0,61.83,0.99,-0.24,-0.2,-0.24,0.32,0.34,0.33,-0.93,-0.89,-0.9,0.0,0.0,0.0
79.0,111.0,90.0,1.0,0.14,0.14,0.14,0.76,0.77,0.77,-0.63,-0.62,-0.62,0.0,0.0,26.0
87.0,99.0,93.4,1.0,-0.28,-0.22,-0.25,-0.41,-0.15,-0.33,0.86,0.97,0.9,0.0,0.0,12.0
67.0,77.0,69.75,1.0,-0.26,0.86,0.34,-1.08,0.81,0.04,-1.08,0.42,-0.76,0.0,0.0,22.0
68.0,75.0,72.5,1.0,-0.61,-0.51,-0.56,-0.81,-0.71,-0.74,0.15,0.54,0.35,0.0,0.0,15.0
63.0,70.0,65.33,1.0,-0.16,1.03,0.3,-0.54,0.88,0.34,-0.97,0.2,-0.39,0.0,0.0,25.0
69.0,73.0,70.17,1.0,-0.42,-0.3,-0.4,-0.18,-0.14,-0.17,-0.94,-0.88,-0.9,0.0,0.0,20.0
61.0,63.0,62.0,0.99,0.38,0.44,0.4,-0.83,-0.68,-0.77,0.39,0.58,0.48,0.0,0.0,6.0
56.0,57.0,56.8,1.0,-0.56,-0.56,-0.56,-0.72,-0.72,-0.72,0.39,0.41,0.4,0.0,0.0,11.0
80.0,111.0,95.83,1.0,0.67,0.68,0.67,0.73,0.74,0.74,-0.04,0.01,-0.02,0.0,0.0,13.0
75.0,82.0,78.17,0.99,-0.04,-0.03,-0.04,-0.28,-0.27,-0.28,0.95,0.96,0.95,0.0,0.0,1.0
73.0,75.0,74.17,1.0,0.05,0.06,0.05,0.65,0.67,0.66,-0.75,-0.74,-0.75,0.0,0.0,19.0
86.0,88.0,87.17,1.0,-0.28,-0.27,-0.27,-0.35,-0.34,-0.34,0.89,0.9,0.89,0.0,0.0,12.0
51.0,86.0,73.8,1.0,0.07,0.08,0.07,0.62,0.65,0.63,-0.78,-0.76,-0.77,0.0,0.0,10.0
47.0,47.0,47.0,0.99,-0.26,-0.25,-0.25,0.27,0.28,0.28,-0.93,-0.92,-0.92,0.0,0.0,30.0
53.0,86.0,63.17,1.0,-0.05,0.32,0.08,-0.29,0.21,0.01,-1.1,-0.87,-0.99,0.0,0.0,3.0
63.0,72.0,67.43,1.0,-0.3,-0.29,-0.29,0.08,0.1,0.09,-0.96,-0.95,-0.95,0.0,0.0,6.0
63.0,76.0,67.33,1.0,-0.59,-0.27,-0.5,-1.02,-0.6,-0.75,-0.6,0.45,-0.34,0.0,0.0,9.0
85.0,86.0,85.17,1.0,-0.27,-0.27,-0.27,-0.35,-0.34,-0.35,0.89,0.9,0.89,0.0,0.0,12.0
59.0,61.0,60.33,1.0,-0.94,0.08,-0.41,-0.08,0.95,0.38,-0.99,0.0,-0.74,0.0,0.0,25.0
74.0,85.0,80.67,1.0,-0.26,-0.18,-0.24,0.58,0.93,0.9,-0.7,-0.32,-0.37,0.0,0.0,4.0
77.0,111.0,84.6,1.0,-0.86,0.78,0.54,-0.15,1.09,0.12,-0.85,0.01,-0.64,0.0,0.0,15.0
77.0,78.0,77.8,1.0,-0.4,-0.39,-0.39,-0.15,-0.13,-0.14,-0.91,-0.9,-0.91,0.0,0.0,28.0
77.0,79.0,77.33,0.99,-0.17,-0.17,-0.17,-0.4,-0.39,-0.39,0.89,0.9,0.9,0.0,0.0,28.0
96.0,108.0,105.0,1.02,-0.97,1.45,0.3,-1.19,0.28,-0.6,-1.67,0.77,-0.2,0.0,0.0,6.0
71.0,76.0,73.5,1.0,-0.44,-0.44,-0.44,-0.53,-0.52,-0.53,0.72,0.73,0.72,0.0,0.0,12.0
71.0,71.0,71.0,1.0,0.08,0.09,0.09,0.96,0.97,0.96,0.24,0.25,0.25,0.0,0.0,19.0
65.0,66.0,65.2,1.0,0.62,0.63,0.62,-0.71,-0.7,-0.7,0.33,0.34,0.34,0.0,0.0,2.0
67.0,84.0,71.86,1.0,-0.45,0.81,0.42,-0.61,1.07,0.23,-1.09,0.25,-0.76,0.0,0.0,10.0
60.0,60.0,60.0,1.0,-0.2,-0.19,-0.19,0.74,0.75,0.74,0.64,0.65,0.65,0.0,0.0,27.0
68.0,74.0,71.33,1.0,0.56,0.59,0.57,0.15,0.17,0.16,-0.81,-0.78,-0.8,0.0,0.0,10.0
73.0,75.0,74.0,0.99,-0.29,-0.29,-0.29,-0.5,-0.49,-0.5,0.81,0.81,0.81,0.0,0.0,28.0
71.0,78.0,73.17,1.0,0.03,0.05,0.04,0.79,0.81,0.8,-0.6,-0.59,-0.6,0.0,0.0,19.0
68.0,70.0,69.4,1.0,0.53,0.55,0.54,0.1,0.12,0.11,-0.84,-0.82,-0.83,0.0,0.0,10.0
68.0,77.0,72.33,1.0,-0.81,-0.79,-0.8,-0.06,-0.05,-0.06,-0.61,-0.59,-0.59,0.0,0.0,21.0
67.0,80.0,70.67,1.01,-0.09,0.39,0.26,-0.21,1.07,0.06,-1.29,0.06,-0.94,0.0,0.0,12.0
84.0,84.0,84.0,1.0,-0.71,-0.18,-0.46,0.66,0.99,0.83,-0.23,0.28,0.09,0.0,0.0,26.0
60.0,62.0,60.29,1.01,-0.15,-0.09,-0.11,0.97,1.02,0.99,-0.21,-0.14,-0.18,0.0,0.0,22.0
60.0,66.0,63.83,1.0,0.5,0.52,0.5,-0.11,-0.09,-0.1,-0.86,-0.84,-0.85,0.0,0.0,25.0
54.0,56.0,55.33,1.01,-1.18,-0.11,-0.33,-0.95,0.27,-0.1,-1.18,-0.19,-0.87,0.0,0.0,20.0
62.0,68.0,63.67,1.0,-0.74,-0.37,-0.46,-0.19,0.4,-0.02,-0.98,-0.63,-0.88,0.0,0.0,15.0
71.0,78.0,75.33,1.0,-0.09,0.15,0.06,-0.19,0.85,0.64,-1.16,-0.59,-0.75,0.0,0.0,19.0
59.0,59.0,59.0,1.0,-0.02,-0.01,-0.01,-0.06,-0.06,-0.06,-1.0,-1.0,-1.0,0.0,0.0,1.0
61.0,63.0,61.83,1.01,-0.12,-0.1,-0.11,0.97,0.99,0.99,-0.23,-0.15,-0.17,0.0,0.0,22.0
58.0,59.0,58.2,1.0,-0.42,-0.41,-0.41,-0.89,-0.88,-0.88,0.2,0.21,0.21,0.0,0.0,16.0
54.0,57.0,56.0,1.01,-0.19,0.75,0.16,-0.75,1.02,-0.03,-1.15,0.05,-0.93,0.0,0.0,3.0
83.0,84.0,83.17,1.0,-0.26,-0.25,-0.26,-0.34,-0.33,-0.33,0.9,0.91,0.9,0.0,0.0,12.0
58.0,58.0,58.0,0.99,-0.04,-0.03,-0.03,0.51,0.52,0.51,-0.85,-0.84,-0.85,0.0,0.0,0.0
49.0,54.0,50.83,1.0,0.4,0.41,0.4,0.45,0.46,0.46,-0.8,-0.79,-0.79,0.0,0.0,0.0
69.0,74.0,71.43,1.0,0.05,0.06,0.05,0.66,0.67,0.66,-0.75,-0.74,-0.74,0.0,0.0,19.0
72.0,76.0,74.17,1.0,0.05,0.06,0.06,0.65,0.67,0.66,-0.75,-0.74,-0.75,0.0,0.0,19.0
54.0,57.0,55.43,1.0,-0.75,0.28,-0.36,-1.1,1.67,-0.03,-1.28,-0.08,-0.85,0.0,0.0,30.0
69.0,70.0,69.8,1.0,-0.55,0.78,-0.32,0.3,1.31,0.78,-0.38,0.59,0.34,0.0,0.0,22.0
68.0,70.0,68.8,1.0,-0.73,0.16,-0.45,-0.8,0.53,0.13,-1.12,-0.53,-0.83,0.0,0.0,28.0
69.0,72.0,70.33,1.0,0.58,0.6,0.59,-0.52,-0.5,-0.51,-0.63,-0.61,-0.62,0.0,0.0,15.0
83.0,98.0,89.43,1.0,-0.33,-0.32,-0.32,-0.43,-0.41,-0.43,0.82,0.86,0.85,0.0,0.0,16.0
68.0,68.0,68.0,0.99,-0.55,-0.39,-0.49,0.13,0.84,0.33,-0.92,-0.28,-0.77,0.0,0.0,27.0
89.0,90.0,89.67,1.01,-0.12,1.2,0.66,-0.37,1.04,0.55,-1.1,0.17,-0.28,0.0,0.0,30.0
77.0,104.0,86.86,1.01,-0.06,1.1,0.24,-0.38,0.59,0.14,-1.01,1.07,0.23,0.0,0.0,13.0
65.0,81.0,76.6,1.0,-0.28,-0.26,-0.26,-0.57,-0.43,-0.56,0.78,0.87,0.79,0.0,0.0,16.0
68.0,81.0,74.83,1.0,0.4,0.57,0.46,0.24,0.5,0.37,-0.92,-0.75,-0.8,0.0,0.0,10.0
70.0,75.0,71.6,1.0,-1.02,-0.2,-0.34,-0.7,0.46,0.28,-1.14,-0.45,-0.88,0.0,0.0,19.0
68.0,75.0,70.33,1.0,-0.02,0.45,0.07,0.29,1.09,0.75,-0.75,0.24,-0.47,0.0,0.0,19.0
61.0,61.0,61.0,0.99,-0.01,0.03,0.0,0.22,0.33,0.29,-0.97,-0.92,-0.95,0.0,0.0,0.0
60.0,63.0,61.6,1.0,-0.4,-0.39,-0.39,-0.09,-0.08,-0.08,-0.91,-0.91,-0.91,0.0,0.0,9.0
51.0,55.0,52.4,1.0,0.41,0.42,0.42,0.37,0.39,0.38,-0.83,-0.81,-0.82,0.0,0.0,10.0
64.0,66.0,65.0,0.99,0.15,0.15,0.15,-0.88,-0.87,-0.88,0.44,0.45,0.44,0.0,0.0,22.0
51.0,63.0,56.83,0.99,-0.01,-0.0,-0.01,0.36,0.37,0.36,-0.93,-0.92,-0.92,0.0,0.0,0.0
61.0,72.0,65.33,1.0,0.44,0.45,0.45,-0.32,-0.29,-0.3,-0.85,-0.84,-0.85,0.0,0.0,2.0
55.0,56.0,55.2,0.99,-0.38,-0.36,-0.37,-0.07,-0.03,-0.05,-0.93,-0.91,-0.92,0.0,0.0,30.0
59.0,60.0,59.67,1.0,-0.45,-0.44,-0.44,-0.79,-0.77,-0.78,-0.44,-0.42,-0.43,0.0,0.0,16.0
78.0,86.0,80.0,1.0,-0.13,-0.03,-0.11,0.24,0.45,0.31,-0.98,-0.84,-0.95,0.0,0.0,12.0
50.0,55.0,51.4,0.99,-0.34,-0.3,-0.32,0.26,0.35,0.29,-0.91,-0.89,-0.89,0.0,0.0,30.0
71.0,89.0,78.2,0.99,-0.1,-0.09,-0.09,-0.27,-0.25,-0.26,-0.96,-0.94,-0.95,0.0,0.0,11.0
75.0,80.0,77.5,1.0,-0.18,-0.17,-0.18,-0.2,-0.19,-0.2,0.96,0.96,0.96,0.0,0.0,12.0
69.0,70.0,69.6,1.0,-0.15,-0.15,-0.15,-0.99,-0.99,-0.99,-0.06,-0.05,-0.06,0.0,0.0,2.0
92.0,99.0,95.29,0.99,-0.29,0.07,-0.01,-1.2,-0.28,-0.98,-0.38,0.36,0.11,0.0,0.0,13.0
75.0,77.0,76.33,1.0,-0.55,1.39,0.48,-0.32,1.01,0.61,-0.92,-0.12,-0.46,0.0,0.0,10.0
63.0,65.0,64.0,0.99,-0.42,-0.35,-0.4,-0.12,0.18,0.02,-0.93,-0.87,-0.9,0.0,0.0,14.0
81.0,84.0,82.43,1.0,-0.33,-0.19,-0.29,-0.33,0.44,-0.17,0.86,1.01,0.9,0.0,0.0,12.0
60.0,61.0,60.5,0.99,-0.24,-0.23,-0.24,-0.98,-0.96,-0.96,-0.04,-0.02,-0.03,0.0,0.0,6.0
73.0,74.0,73.71,1.0,0.25,0.26,0.26,0.67,0.68,0.67,-0.7,-0.69,-0.69,0.0,0.0,26.0
61.0,63.0,61.83,1.0,-0.81,-0.79,-0.8,-0.57,-0.56,-0.56,-0.2,-0.19,-0.19,0.0,0.0,9.0
67.0,70.0,68.0,1.0,-0.06,-0.05,-0.06,-0.09,-0.07,-0.08,-1.0,-1.0,-1.0,0.0,0.0,2.0
65.0,78.0,73.17,0.99,-0.63,-0.6,-0.61,-0.1,-0.07,-0.08,-0.79,-0.76,-0.78,0.0,0.0,27.0
64.0,67.0,66.0,1.0,-0.07,-0.07,-0.07,-0.1,-0.09,-0.09,-1.0,-0.99,-1.0,0.0,0.0,2.0
68.0,72.0,69.6,1.0,0.09,0.46,0.32,0.25,0.8,0.56,-0.92,-0.59,-0.74,0.0,0.0,26.0
62.0,66.0,63.33,0.99,0.41,0.71,0.51,-0.89,-0.51,-0.71,0.08,0.66,0.42,0.0,0.0,6.0
52.0,55.0,54.0,1.0,-0.72,-0.33,-0.54,-0.14,0.31,-0.06,-0.91,-0.63,-0.83,0.0,0.0,3.0
63.0,69.0,65.6,1.0,-0.8,-0.47,-0.58,-0.45,-0.05,-0.34,-0.77,-0.52,-0.71,0.0,0.0,9.0
63.0,65.0,64.0,0.99,-0.11,-0.11,-0.11,-0.93,-0.92,-0.92,0.34,0.35,0.35,0.0,0.0,15.0
70.0,78.0,73.0,1.01,-0.4,-0.04,-0.18,0.39,0.94,0.75,-0.93,-0.54,-0.62,0.0,0.0,1.0
56.0,59.0,58.4,1.0,-0.24,-0.22,-0.23,0.24,0.27,0.26,-0.94,-0.93,-0.93,0.0,0.0,16.0
61.0,61.0,61.0,1.0,0.54,0.55,0.55,-0.67,-0.66,-0.66,-0.51,-0.5,-0.51,0.0,0.0,25.0
66.0,70.0,67.4,0.99,-0.42,-0.41,-0.42,0.45,0.47,0.46,-0.78,-0.76,-0.77,0.0,0.0,19.0
70.0,73.0,71.2,1.0,0.41,0.43,0.41,0.41,0.42,0.42,-0.82,-0.8,-0.81,0.0,0.0,19.0
71.0,75.0,72.29,0.99,-0.36,-0.31,-0.34,0.14,0.46,0.32,-0.96,-0.7,-0.88,0.0,0.0,19.0
72.0,72.0,72.0,1.0,0.05,0.06,0.05,0.65,0.67,0.66,-0.75,-0.74,-0.75,0.0,0.0,19.0
63.0,64.0,63.67,1.0,-0.48,-0.47,-0.48,0.13,0.14,0.13,-0.88,-0.87,-0.87,0.0,0.0,15.0
69.0,77.0,72.43,1.0,0.56,0.58,0.57,0.11,0.14,0.13,-0.82,-0.78,-0.81,0.0,0.0,10.0
63.0,64.0,63.5,1.0,-0.73,-0.72,-0.72,-0.42,-0.41,-0.41,-0.55,-0.54,-0.55,0.0,0.0,9.0
71.0,75.0,73.33,1.0,0.22,0.23,0.23,-0.05,-0.04,-0.05,-0.97,-0.97,-0.97,0.0,0.0,21.0
73.0,74.0,73.6,1.0,-0.36,-0.35,-0.35,0.01,0.01,0.01,0.93,0.94,0.93,0.0,0.0,4.0
67.0,78.0,71.8,0.99,-1.05,-0.18,-0.3,0.07,1.01,0.51,-0.83,0.75,-0.56,0.0,0.0,27.0
90.0,92.0,90.6,1.0,0.03,0.04,0.04,-0.99,-0.98,-0.99,0.14,0.16,0.14,0.0,0.0,13.0
73.0,73.0,73.0,1.0,0.8,0.81,0.8,0.09,0.09,0.09,-0.59,-0.58,-0.59,0.0,0.0,1.0
51.0,95.0,80.2,1.0,0.61,0.81,0.7,-0.65,-0.51,-0.58,-0.48,-0.29,-0.41,0.0,0.0,3.0
67.0,68.0,67.8,1.01,-0.93,1.31,0.01,-1.5,1.1,-0.38,-1.08,1.03,-0.42,0.0,0.0,27.0
69.0,73.0,71.4,1.0,0.05,0.06,0.05,0.65,0.67,0.66,-0.75,-0.74,-0.74,0.0,0.0,19.0
97.0,104.0,100.0,1.0,-0.01,0.0,-0.0,-1.0,-0.99,-0.99,0.09,0.11,0.1,0.0,0.0,13.0
63.0,69.0,64.4,0.99,-0.42,-0.37,-0.39,-0.09,-0.06,-0.08,-0.92,-0.89,-0.91,0.0,0.0,27.0
62.0,66.0,63.4,1.0,-0.02,-0.01,-0.02,-0.04,-0.02,-0.04,-1.0,-1.0,-1.0,0.0,0.0,1.0
73.0,78.0,75.33,1.0,-0.05,-0.04,-0.05,-0.99,-0.98,-0.99,0.15,0.16,0.15,0.0,0.0,12.0
50.0,59.0,55.4,1.0,-0.5,-0.2,-0.32,-0.42,0.46,0.11,-1.26,-0.79,-0.94,0.0,0.0,20.0
59.0,59.0,59.0,0.99,-0.08,0.86,0.12,-1.26,0.81,-0.86,-0.99,0.64,0.25,0.0,0.0,6.0
69.0,70.0,69.5,1.0,-0.07,-0.06,-0.06,-0.63,-0.63,-0.63,0.76,0.78,0.77,0.0,0.0,27.0
103.0,111.0,106.57,1.0,-0.25,-0.24,-0.24,-0.17,-0.16,-0.16,-0.96,-0.95,-0.96,0.0,0.0,3.0
88.0,90.0,89.14,1.0,-0.25,-0.16,-0.19,0.05,0.19,0.12,-1.02,-0.95,-0.98,0.0,0.0,5.0
85.0,89.0,86.17,1.0,-0.27,-0.25,-0.26,-0.31,-0.3,-0.3,0.9,0.92,0.91,0.0,0.0,12.0
71.0,73.0,72.5,0.99,-0.16,-0.15,-0.15,-0.61,-0.6,-0.6,0.77,0.78,0.77,0.0,0.0,28.0
45.0,48.0,46.17,0.99,-0.31,-0.29,-0.3,-0.13,-0.12,-0.12,-0.95,-0.93,-0.94,0.0,0.0,30.0
70.0,72.0,71.33,1.0,0.08,0.09,0.08,0.96,0.97,0.96,0.24,0.25,0.25,0.0,0.0,19.0
53.0,59.0,55.33,1.0,-0.29,-0.22,-0.26,-0.29,-0.11,-0.19,-1.05,-0.82,-0.95,0.0,0.0,20.0
82.0,84.0,83.0,1.01,0.1,0.31,0.25,0.74,1.06,0.84,-0.63,0.11,-0.44,0.0,0.0,1.0
54.0,77.0,58.6,1.0,-0.98,-0.16,-0.45,-0.97,0.0,-0.72,-0.86,0.42,0.06,0.0,0.0,10.0
62.0,81.0,70.2,1.0,0.04,0.56,0.34,-0.96,-0.71,-0.81,-0.55,-0.33,-0.46,0.0,0.0,6.0
67.0,69.0,67.8,0.99,-0.22,-0.2,-0.21,0.13,0.15,0.14,-0.96,-0.95,-0.96,0.0,0.0,25.0
67.0,75.0,71.0,1.01,-0.13,0.12,0.02,-0.26,0.05,-0.03,0.91,1.06,1.0,0.0,0.0,25.0
61.0,67.0,63.83,1.0,-0.47,-0.45,-0.46,-0.89,-0.87,-0.88,-0.05,-0.03,-0.04,0.0,0.0,16.0
68.0,69.0,68.6,1.0,0.43,0.44,0.43,-0.26,-0.25,-0.26,-0.87,-0.86,-0.87,0.0,0.0,2.0
50.0,53.0,52.0,1.0,-0.19,-0.17,-0.18,-0.01,0.04,0.02,-0.99,-0.97,-0.98,0.0,0.0,5.0
50.0,69.0,55.8,1.0,0.57,0.91,0.63,-0.33,-0.01,-0.18,-0.78,-0.4,-0.75,0.0,0.0,20.0
61.0,81.0,69.4,1.0,-1.1,-0.15,-0.55,-1.0,0.16,-0.46,-0.87,0.52,-0.36,0.0,0.0,10.0
49.0,50.0,49.83,1.0,-0.27,-0.26,-0.27,-0.32,-0.3,-0.31,-0.92,-0.91,-0.91,0.0,0.0,20.0
72.0,73.0,72.17,1.0,0.09,0.09,0.09,0.96,0.97,0.97,0.24,0.25,0.24,0.0,0.0,19.0
72.0,74.0,72.5,1.0,0.43,0.68,0.5,0.12,0.42,0.29,-0.86,-0.65,-0.81,0.0,0.0,10.0
69.0,70.0,69.8,1.0,0.05,0.06,0.05,0.65,0.67,0.66,-0.75,-0.74,-0.74,0.0,0.0,19.0
72.0,77.0,74.57,1.0,0.02,0.14,0.04,-0.14,0.99,0.67,-0.99,-0.47,-0.67,0.0,0.0,19.0
57.0,57.0,57.0,0.99,-0.04,-0.03,-0.03,0.52,0.53,0.53,-0.85,-0.83,-0.84,0.0,0.0,0.0
59.0,59.0,59.0,1.0,-0.19,-0.18,-0.19,0.73,0.73,0.73,0.65,0.66,0.66,0.0,0.0,27.0
68.0,68.0,68.0,0.99,-0.62,-0.61,-0.61,0.04,0.05,0.05,-0.78,-0.77,-0.78,0.0,0.0,27.0
61.0,67.0,63.67,1.0,-0.07,-0.07,-0.07,-0.09,-0.08,-0.09,-1.0,-0.99,-1.0,0.0,0.0,2.0
72.0,75.0,73.33,1.0,0.05,0.06,0.05,0.65,0.67,0.66,-0.75,-0.74,-0.75,0.0,0.0,19.0
59.0,61.0,60.17,0.99,0.05,0.4,0.17,-1.04,-0.77,-0.92,-0.37,0.39,0.3,0.0,0.0,6.0
63.0,63.0,63.0,1.0,0.41,0.41,0.41,0.85,0.85,0.85,0.3,0.31,0.31,0.0,0.0,2.0
64.0,65.0,64.83,0.99,-0.57,-0.56,-0.56,-0.73,-0.72,-0.72,0.37,0.39,0.38,0.0,0.0,14.0
73.0,75.0,73.6,0.99,-0.33,-0.32,-0.32,-0.14,-0.13,-0.14,-0.94,-0.92,-0.93,1.0,1.0,13.0
71.0,73.0,71.8,1.0,-0.44,-0.41,-0.43,-0.54,-0.29,-0.31,-0.86,-0.78,-0.85,1.0,1.0,28.0
55.0,59.0,56.33,0.99,-0.06,-0.05,-0.05,0.38,0.39,0.38,-0.92,-0.91,-0.91,1.0,1.0,0.0
75.0,89.0,81.83,1.0,-0.05,-0.05,-0.05,-0.45,-0.44,-0.45,0.89,0.9,0.89,1.0,1.0,2.0
47.0,48.0,47.6,0.99,-0.3,-0.29,-0.3,0.21,0.22,0.21,-0.93,-0.92,-0.92,1.0,1.0,30.0
46.0,50.0,48.2,1.0,-0.77,-0.39,-0.55,-0.03,0.62,0.0,-0.84,-0.41,-0.82,1.0,1.0,20.0
63.0,69.0,65.33,1.0,-0.04,-0.03,-0.03,-0.97,-0.97,-0.97,0.2,0.22,0.21,1.0,1.0,14.0
67.0,71.0,69.0,1.0,-0.07,-0.0,-0.02,0.11,0.57,0.28,-1.04,-0.85,-0.94,1.0,1.0,26.0
50.0,52.0,51.2,1.0,0.0,0.01,0.0,0.05,0.05,0.05,-1.01,-1.0,-1.0,1.0,1.0,3.0
57.0,64.0,61.5,1.0,-0.55,-0.54,-0.54,-0.68,-0.67,-0.68,0.48,0.49,0.49,1.0,1.0,11.0
79.0,87.0,82.0,1.0,0.24,0.25,0.25,-0.91,-0.9,-0.9,0.35,0.37,0.36,1.0,1.0,13.0
47.0,49.0,48.0,1.0,-0.34,-0.32,-0.33,-0.15,-0.13,-0.13,-0.94,-0.92,-0.93,1.0,1.0,20.0
54.0,78.0,62.83,1.0,-0.3,-0.29,-0.3,0.06,0.06,0.06,0.95,0.96,0.96,1.0,1.0,16.0
46.0,57.0,51.0,1.0,-0.32,-0.31,-0.31,-0.06,-0.05,-0.05,-0.96,-0.93,-0.95,1.0,1.0,20.0
59.0,61.0,59.33,1.0,-0.92,-0.62,-0.73,-0.65,-0.12,-0.37,-0.85,0.24,-0.54,1.0,1.0,9.0
66.0,84.0,73.5,1.0,-0.68,-0.68,-0.68,-0.72,-0.72,-0.72,-0.11,-0.1,-0.1,1.0,1.0,1.0
80.0,92.0,85.4,1.0,-0.68,-0.26,-0.3,-1.17,0.55,-0.8,-1.04,0.19,-0.4,1.0,1.0,13.0
76.0,83.0,78.83,1.0,-0.04,-0.03,-0.03,0.24,0.26,0.25,-0.98,-0.96,-0.96,1.0,1.0,26.0
51.0,53.0,51.83,1.0,0.29,0.3,0.3,-0.17,-0.17,-0.17,-0.94,-0.94,-0.94,1.0,1.0,3.0
78.0,87.0,82.0,1.0,-0.11,-0.1,-0.1,0.8,0.81,0.81,0.58,0.59,0.58,1.0,1.0,13.0
54.0,58.0,55.8,1.0,-0.36,-0.35,-0.36,-0.47,-0.44,-0.45,-0.82,-0.81,-0.81,1.0,1.0,16.0
47.0,87.0,62.8,1.0,-0.24,-0.21,-0.23,-0.21,-0.17,-0.19,-0.97,-0.93,-0.95,1.0,1.0,5.0
84.0,85.0,84.33,1.0,0.04,0.04,0.04,-0.99,-0.98,-0.99,0.13,0.15,0.14,1.0,1.0,13.0
55.0,87.0,67.4,0.99,-0.28,-0.27,-0.28,-0.95,-0.94,-0.94,0.14,0.15,0.15,1.0,1.0,6.0
50.0,70.0,54.6,1.0,-0.38,-0.37,-0.38,-0.9,-0.89,-0.9,0.21,0.23,0.22,1.0,1.0,10.0
80.0,87.0,83.8,1.0,0.02,0.39,0.1,-0.64,0.26,-0.03,-1.19,-0.66,-0.98,1.0,1.0,25.0
48.0,49.0,48.67,1.0,0.65,0.66,0.65,-0.77,-0.75,-0.75,-0.06,-0.04,-0.05,1.0,1.0,5.0
63.0,67.0,64.83,1.0,-0.6,-0.57,-0.57,-0.77,-0.72,-0.75,-0.35,-0.29,-0.31,1.0,1.0,21.0
65.0,68.0,65.5,1.0,-0.95,-0.94,-0.94,0.03,0.05,0.04,-0.34,-0.33,-0.33,1.0,1.0,22.0
57.0,61.0,58.8,1.0,-0.16,-0.15,-0.15,0.92,0.93,0.92,-0.35,-0.34,-0.35,1.0,1.0,25.0
51.0,53.0,51.67,0.99,-0.35,-0.34,-0.34,0.24,0.26,0.25,-0.9,-0.88,-0.89,1.0,1.0,11.0
69.0,70.0,69.8,1.0,0.08,0.1,0.09,0.95,0.97,0.96,0.24,0.29,0.25,1.0,1.0,19.0
65.0,66.0,65.17,1.0,0.4,0.42,0.41,0.2,0.22,0.22,-0.89,-0.88,-0.89,1.0,1.0,22.0
56.0,60.0,58.0,0.99,0.43,0.43,0.43,-0.81,-0.8,-0.81,0.39,0.39,0.39,1.0,1.0,6.0
57.0,63.0,59.83,1.0,-0.73,-0.36,-0.5,-0.93,0.41,-0.04,-1.05,-0.03,-0.83,1.0,1.0,9.0
69.0,70.0,69.17,1.0,0.08,0.09,0.08,0.95,0.97,0.96,0.24,0.27,0.26,1.0,1.0,19.0
62.0,73.0,66.0,1.0,0.28,0.29,0.28,-0.69,-0.68,-0.69,-0.68,-0.67,-0.68,1.0,1.0,2.0
68.0,69.0,68.33,0.99,-0.42,-0.41,-0.42,0.45,0.48,0.46,-0.78,-0.77,-0.77,1.0,1.0,19.0
48.0,49.0,48.83,1.0,-0.9,-0.66,-0.69,-0.36,-0.27,-0.29,-0.69,-0.33,-0.66,1.0,1.0,20.0
68.0,79.0,72.2,0.99,-0.38,-0.34,-0.36,0.52,0.55,0.54,-0.77,-0.74,-0.75,1.0,1.0,26.0
62.0,67.0,63.2,1.0,0.27,0.29,0.28,0.37,0.38,0.37,-0.88,-0.87,-0.88,1.0,1.0,25.0
53.0,59.0,56.5,0.99,-0.04,-0.02,-0.04,0.43,0.46,0.45,-0.89,-0.88,-0.88,1.0,1.0,0.0
60.0,72.0,65.33,1.0,-0.44,0.25,-0.07,-0.23,0.73,0.44,-1.03,-0.68,-0.87,1.0,1.0,25.0
54.0,59.0,58.17,1.0,-0.4,-0.13,-0.38,-0.93,-0.17,-0.24,0.35,0.91,0.86,1.0,1.0,25.0
57.0,57.0,57.0,0.99,0.36,0.36,0.36,-0.81,-0.8,-0.81,0.45,0.46,0.45,1.0,1.0,6.0
44.0,47.0,45.6,1.0,0.19,0.21,0.2,0.27,0.29,0.28,-0.94,-0.93,-0.94,1.0,1.0,5.0
76.0,97.0,81.17,1.0,0.3,0.31,0.3,0.63,0.65,0.64,0.7,0.72,0.71,1.0,1.0,13.0
76.0,79.0,76.8,1.0,-0.54,-0.52,-0.53,-0.04,-0.03,-0.04,0.85,0.86,0.85,1.0,1.0,16.0
69.0,70.0,69.5,1.0,0.08,0.09,0.09,0.96,0.97,0.97,0.24,0.25,0.25,1.0,1.0,19.0
68.0,79.0,71.83,1.0,-0.46,-0.45,-0.45,0.39,0.4,0.39,-0.81,-0.8,-0.81,1.0,1.0,28.0
60.0,61.0,60.4,1.0,0.6,0.61,0.61,-0.34,-0.31,-0.32,-0.73,-0.72,-0.72,1.0,1.0,22.0
73.0,79.0,76.67,1.0,-0.21,-0.15,-0.16,-1.0,-0.95,-0.98,0.02,0.1,0.06,1.0,1.0,12.0
48.0,50.0,49.33,1.0,0.41,0.43,0.42,-0.03,-0.0,-0.02,-0.91,-0.89,-0.9,1.0,1.0,30.0
78.0,83.0,80.43,1.0,-0.41,-0.27,-0.28,-0.79,-0.5,-0.54,-0.86,-0.44,-0.79,1.0,1.0,20.0
67.0,73.0,71.33,0.99,-0.56,-0.55,-0.55,-0.03,-0.01,-0.02,-0.83,-0.82,-0.82,1.0,1.0,26.0
65.0,66.0,65.6,1.0,-0.43,-0.42,-0.43,-0.06,-0.03,-0.05,-0.91,-0.9,-0.91,1.0,1.0,15.0
68.0,70.0,69.0,0.99,-0.3,-0.29,-0.29,-0.54,-0.5,-0.5,0.79,0.81,0.8,1.0,1.0,28.0
68.0,78.0,71.67,1.0,0.2,0.23,0.22,-0.36,-0.33,-0.36,-0.92,-0.9,-0.91,1.0,1.0,21.0
46.0,47.0,46.4,1.0,-0.47,-0.39,-0.46,-0.19,-0.08,-0.17,-0.95,-0.86,-0.87,1.0,1.0,20.0
68.0,86.0,81.5,1.0,-0.1,0.29,-0.06,0.07,0.48,0.17,-1.1,-0.96,-0.98,1.0,1.0,5.0
65.0,68.0,66.67,0.99,0.49,0.96,0.67,-0.27,0.89,0.18,-0.87,-0.06,-0.68,1.0,1.0,10.0
67.0,71.0,68.5,1.0,0.6,0.61,0.61,0.52,0.53,0.52,-0.6,-0.59,-0.59,1.0,1.0,10.0
47.0,49.0,47.83,1.0,0.1,0.11,0.11,-0.58,-0.57,-0.58,0.81,0.82,0.81,1.0,1.0,20.0
75.0,79.0,77.0,1.0,-0.37,-0.36,-0.36,-0.07,-0.05,-0.06,-0.94,-0.92,-0.93,1.0,1.0,28.0
49.0,57.0,53.2,1.0,-0.0,0.01,0.0,0.21,0.22,0.21,-0.99,-0.97,-0.98,1.0,1.0,3.0
63.0,66.0,64.17,0.99,-0.52,-0.51,-0.52,-0.68,-0.67,-0.68,-0.51,-0.5,-0.51,1.0,1.0,9.0
81.0,85.0,82.8,1.0,0.02,0.04,0.03,-0.99,-0.98,-0.98,0.15,0.18,0.16,1.0,1.0,13.0
48.0,83.0,63.0,1.0,-0.43,0.27,-0.32,-0.56,0.69,0.31,-1.71,-0.68,-0.86,1.0,1.0,30.0
71.0,76.0,73.4,1.03,-1.03,0.93,-0.22,-0.66,3.62,0.3,-2.8,-0.07,-0.92,1.0,1.0,22.0
54.0,61.0,57.17,0.99,-0.26,-0.26,-0.26,-0.96,-0.95,-0.96,0.03,0.04,0.04,1.0,1.0,6.0
63.0,64.0,63.83,1.0,0.5,0.51,0.51,-0.63,-0.61,-0.62,-0.6,-0.59,-0.6,1.0,1.0,15.0
56.0,59.0,58.43,1.0,-0.49,-0.49,-0.49,-0.71,-0.7,-0.7,0.51,0.51,0.51,1.0,1.0,11.0
58.0,62.0,59.8,1.0,0.56,0.57,0.56,0.05,0.08,0.06,-0.83,-0.82,-0.82,1.0,1.0,21.0
60.0,66.0,64.8,1.0,-0.19,0.15,0.11,-0.38,0.2,0.02,0.88,1.07,0.99,1.0,1.0,16.0
77.0,87.0,82.8,0.99,-0.79,0.23,0.02,-1.33,-0.38,-0.78,-0.86,0.57,0.11,1.0,1.0,30.0
59.0,100.0,86.83,1.0,-0.5,-0.45,-0.46,0.44,0.58,0.57,-0.74,-0.67,-0.68,1.0,1.0,21.0
91.0,100.0,94.83,0.99,-0.22,-0.21,-0.21,0.12,0.14,0.13,-0.96,-0.95,-0.96,1.0,1.0,13.0
64.0,98.0,77.6,1.01,-0.93,0.21,-0.54,-0.94,1.21,0.03,-1.03,-0.25,-0.81,1.0,1.0,22.0
52.0,62.0,59.2,1.0,0.74,0.75,0.75,0.13,0.15,0.13,-0.66,-0.64,-0.65,1.0,1.0,30.0
65.0,74.0,69.4,0.99,-0.33,-0.32,-0.32,-0.33,-0.31,-0.32,0.88,0.89,0.88,1.0,1.0,22.0
65.0,68.0,66.8,0.99,-0.38,-0.37,-0.37,0.34,0.36,0.35,-0.86,-0.84,-0.85,1.0,1.0,30.0
59.0,61.0,59.4,0.99,0.04,0.16,0.1,-0.25,0.47,-0.0,-1.04,-0.84,-0.96,1.0,1.0,0.0
47.0,65.0,58.2,1.0,-0.45,-0.44,-0.44,0.19,0.21,0.2,-0.88,-0.86,-0.87,1.0,1.0,20.0
65.0,94.0,80.67,1.0,0.3,0.43,0.31,0.83,1.0,0.88,-0.43,-0.36,-0.38,1.0,1.0,0.0
69.0,72.0,71.0,0.99,-0.74,-0.73,-0.73,-0.48,-0.47,-0.47,0.47,0.48,0.47,1.0,1.0,14.0
45.0,50.0,46.83,1.0,-0.54,-0.53,-0.53,0.48,0.49,0.49,-0.69,-0.68,-0.69,1.0,1.0,20.0
60.0,66.0,63.83,1.0,-0.1,-0.02,-0.06,-0.27,-0.2,-0.25,-1.0,-0.95,-0.97,1.0,1.0,22.0
64.0,68.0,66.2,1.0,-0.82,-0.81,-0.82,0.26,0.27,0.26,-0.51,-0.5,-0.51,1.0,1.0,21.0
75.0,80.0,76.33,0.99,-0.32,0.61,0.19,-0.55,0.57,-0.03,-1.17,-0.11,-0.94,1.0,1.0,22.0
45.0,50.0,47.17,1.0,-0.44,-0.42,-0.43,-0.17,-0.16,-0.16,-0.89,-0.88,-0.89,1.0,1.0,20.0
54.0,56.0,54.33,0.99,-0.05,-0.04,-0.04,0.39,0.4,0.4,-0.91,-0.9,-0.91,1.0,1.0,0.0
66.0,67.0,66.6,1.0,0.74,0.74,0.74,0.52,0.53,0.53,-0.43,-0.42,-0.42,1.0,1.0,1.0
62.0,75.0,69.33,1.01,-0.4,0.11,0.06,-0.63,-0.14,-0.16,0.71,1.02,0.99,1.0,1.0,25.0
45.0,47.0,46.0,1.0,-0.31,-0.3,-0.3,-0.54,-0.52,-0.53,-0.8,-0.78,-0.79,1.0,1.0,20.0
75.0,87.0,80.17,1.01,-0.53,-0.02,-0.38,-0.64,1.4,-0.05,-1.09,-0.25,-0.88,1.0,1.0,4.0
65.0,71.0,67.17,1.0,0.24,0.24,0.24,0.97,0.98,0.97,-0.03,-0.02,-0.03,1.0,1.0,14.0
66.0,70.0,67.8,0.99,-0.6,-0.59,-0.6,0.15,0.18,0.17,-0.78,-0.77,-0.78,1.0,1.0,27.0
53.0,55.0,54.2,0.99,-0.21,-0.2,-0.2,0.18,0.19,0.18,-0.96,-0.94,-0.95,1.0,1.0,0.0
55.0,55.0,55.0,1.0,-0.12,-0.11,-0.11,-0.96,-0.95,-0.96,0.26,0.27,0.26,1.0,1.0,11.0
67.0,68.0,67.83,0.99,-0.42,-0.41,-0.42,0.45,0.48,0.46,-0.78,-0.77,-0.77,1.0,1.0,19.0
53.0,54.0,53.4,1.0,-0.23,-0.22,-0.23,0.24,0.25,0.25,-0.95,-0.93,-0.94,1.0,1.0,16.0
71.0,71.0,71.0,1.0,0.6,0.62,0.61,-0.5,-0.49,-0.5,-0.63,-0.6,-0.62,1.0,1.0,15.0
74.0,97.0,88.2,1.01,-0.19,0.95,0.27,-1.08,1.32,-0.77,-1.14,0.93,0.22,1.0,1.0,13.0
54.0,55.0,54.71,1.0,-0.55,-0.54,-0.54,-0.64,-0.64,-0.64,0.53,0.55,0.54,1.0,1.0,11.0
61.0,65.0,62.67,1.0,0.16,0.16,0.16,-0.53,-0.52,-0.52,0.84,0.84,0.84,1.0,1.0,14.0
44.0,49.0,46.0,1.0,-0.33,-0.31,-0.32,-0.17,-0.12,-0.15,-0.95,-0.92,-0.93,1.0,1.0,20.0
57.0,57.0,57.0,0.99,-0.01,0.0,-0.0,0.36,0.37,0.37,-0.93,-0.92,-0.92,1.0,1.0,0.0
52.0,53.0,52.8,1.0,0.27,0.28,0.28,-0.35,-0.32,-0.34,-0.91,-0.89,-0.9,1.0,1.0,3.0
46.0,47.0,46.83,1.0,-0.33,-0.31,-0.32,-0.12,-0.09,-0.1,-0.95,-0.93,-0.94,1.0,1.0,20.0
53.0,57.0,54.0,0.99,-0.22,-0.21,-0.21,0.37,0.38,0.38,-0.89,-0.88,-0.89,1.0,1.0,0.0
47.0,52.0,48.8,1.0,-0.39,-0.33,-0.36,-0.02,0.38,0.28,-0.93,-0.83,-0.89,1.0,1.0,20.0
64.0,77.0,69.0,1.0,0.05,0.22,0.13,-0.3,1.02,-0.14,-1.01,-0.31,-0.97,1.0,1.0,19.0
83.0,83.0,83.0,0.99,-0.49,-0.48,-0.48,-0.17,-0.12,-0.14,-0.86,-0.84,-0.85,1.0,1.0,30.0
76.0,78.0,76.67,1.0,-0.37,-0.36,-0.37,-0.24,-0.24,-0.24,0.89,0.9,0.9,1.0,1.0,12.0
83.0,90.0,86.0,1.0,-0.52,-0.18,-0.36,-0.34,0.29,-0.1,-1.16,-0.73,-0.92,1.0,1.0,4.0
50.0,56.0,53.29,1.0,0.08,0.1,0.09,0.02,0.02,0.02,-1.01,-1.0,-1.0,1.0,1.0,3.0
51.0,53.0,52.0,0.99,-0.46,-0.44,-0.45,0.52,0.56,0.54,-0.71,-0.7,-0.7,1.0,1.0,10.0
47.0,50.0,47.8,1.0,-0.43,-0.42,-0.42,-0.29,-0.28,-0.29,-0.86,-0.85,-0.86,1.0,1.0,20.0
49.0,58.0,52.57,0.99,-0.16,-0.15,-0.15,0.25,0.27,0.26,-0.95,-0.93,-0.94,1.0,1.0,0.0
58.0,61.0,59.0,1.0,0.54,0.56,0.54,0.31,0.32,0.32,-0.78,-0.76,-0.77,1.0,1.0,10.0
65.0,66.0,65.83,1.0,0.21,0.22,0.21,0.69,0.75,0.7,-0.69,-0.63,-0.69,1.0,1.0,15.0
58.0,67.0,61.43,1.0,0.27,0.29,0.27,-0.13,-0.09,-0.11,-0.96,-0.95,-0.96,1.0,1.0,6.0
72.0,75.0,73.5,1.0,-0.59,-0.58,-0.58,-0.05,-0.02,-0.04,-0.82,-0.81,-0.81,1.0,1.0,28.0
65.0,65.0,65.0,1.0,0.26,0.34,0.28,0.8,0.91,0.88,-0.55,-0.33,-0.39,1.0,1.0,0.0
77.0,78.0,77.67,0.99,-0.17,-0.16,-0.17,-0.79,-0.78,-0.78,-0.6,-0.58,-0.59,1.0,1.0,30.0
61.0,62.0,61.8,1.01,0.14,0.21,0.2,0.7,0.82,0.75,0.56,0.7,0.64,1.0,1.0,0.0
75.0,76.0,75.17,1.0,0.37,0.42,0.37,-0.92,-0.88,-0.91,0.12,0.2,0.2,1.0,1.0,2.0
67.0,68.0,67.83,1.0,0.1,0.11,0.11,0.27,0.27,0.27,-0.96,-0.95,-0.95,1.0,1.0,14.0
78.0,89.0,83.83,0.99,-0.06,-0.05,-0.06,0.16,0.17,0.17,-0.98,-0.97,-0.98,1.0,1.0,13.0
62.0,63.0,62.2,1.0,-0.24,0.47,0.36,-0.39,1.14,0.02,-1.02,-0.17,-0.76,1.0,1.0,27.0
53.0,58.0,54.83,0.99,-0.04,-0.04,-0.04,0.46,0.47,0.47,-0.88,-0.87,-0.87,1.0,1.0,0.0
83.0,85.0,84.0,1.01,-0.46,1.25,0.17,-0.26,1.21,0.76,-1.1,1.03,0.14,1.0,1.0,0.0
79.0,84.0,81.17,1.0,0.23,0.26,0.24,-0.96,-0.94,-0.95,0.16,0.21,0.19,1.0,1.0,13.0
61.0,65.0,63.33,0.99,-0.21,-0.2,-0.21,-0.94,-0.94,-0.94,0.23,0.24,0.24,1.0,1.0,14.0
67.0,68.0,67.67,1.0,-0.95,-0.94,-0.95,0.05,0.06,0.05,-0.33,-0.32,-0.32,1.0,1.0,22.0
50.0,51.0,50.71,1.0,-0.0,0.0,-0.0,0.05,0.05,0.05,-1.0,-1.0,-1.0,1.0,1.0,3.0
65.0,66.0,65.83,1.0,0.7,0.73,0.72,-0.31,-0.3,-0.31,-0.63,-0.61,-0.62,1.0,1.0,15.0
62.0,77.0,67.67,1.0,0.61,0.63,0.61,0.47,0.48,0.48,-0.63,-0.62,-0.63,1.0,1.0,10.0
59.0,63.0,61.0,1.0,0.42,0.43,0.43,-0.16,-0.15,-0.16,-0.89,-0.88,-0.89,1.0,1.0,27.0
59.0,60.0,59.67,1.0,-0.54,-0.53,-0.54,0.82,0.83,0.83,-0.18,-0.17,-0.17,1.0,1.0,21.0
66.0,68.0,66.67,1.0,-0.09,-0.07,-0.07,-0.04,0.01,0.0,-1.0,-0.99,-0.99,1.0,1.0,26.0
64.0,73.0,68.0,0.99,-0.21,-0.18,-0.2,0.28,0.32,0.31,-0.93,-0.92,-0.92,1.0,1.0,25.0
59.0,65.0,61.33,1.0,-0.38,-0.37,-0.37,-0.49,-0.48,-0.49,0.79,0.8,0.79,1.0,1.0,16.0
75.0,78.0,76.33,1.0,-0.05,-0.04,-0.05,-0.99,-0.98,-0.98,0.15,0.17,0.16,1.0,1.0,12.0
45.0,46.0,45.67,1.0,-0.14,-0.13,-0.13,-0.38,-0.36,-0.37,-0.92,-0.91,-0.92,1.0,1.0,5.0
65.0,68.0,66.0,1.01,0.17,0.18,0.17,0.8,0.81,0.8,-0.58,-0.57,-0.58,1.0,1.0,15.0
47.0,77.0,58.17,1.0,-0.4,-0.38,-0.39,-0.45,-0.42,-0.44,-0.82,-0.8,-0.81,1.0,1.0,20.0
45.0,47.0,46.67,0.99,-0.24,-0.09,-0.2,-0.38,-0.2,-0.27,-1.05,-0.87,-0.93,1.0,1.0,30.0
47.0,49.0,48.0,0.99,-0.28,-0.27,-0.28,0.27,0.28,0.28,-0.92,-0.91,-0.91,1.0,1.0,30.0
69.0,70.0,69.2,1.0,0.08,0.09,0.08,0.96,0.97,0.97,0.21,0.26,0.24,1.0,1.0,19.0
56.0,63.0,57.6,0.99,0.56,0.57,0.57,-0.82,-0.81,-0.82,0.05,0.06,0.06,1.0,1.0,6.0
63.0,65.0,64.4,1.0,-0.47,-0.45,-0.46,-0.17,-0.16,-0.16,-0.88,-0.87,-0.88,1.0,1.0,22.0
61.0,74.0,65.67,1.0,-0.5,-0.47,-0.48,0.12,0.16,0.14,-0.89,-0.85,-0.87,1.0,1.0,15.0
66.0,67.0,66.5,1.0,-0.22,-0.21,-0.21,0.56,0.59,0.59,-0.78,-0.77,-0.78,1.0,1.0,26.0
53.0,55.0,53.83,1.0,-0.27,-0.27,-0.27,0.32,0.33,0.33,-0.91,-0.9,-0.91,1.0,2.0,3.0
69.0,71.0,70.5,1.0,0.58,0.6,0.59,-0.51,-0.49,-0.5,-0.64,-0.61,-0.63,1.0,2.0,15.0
66.0,67.0,66.83,1.0,-0.05,-0.05,-0.05,-0.45,-0.45,-0.45,0.89,0.89,0.89,1.0,2.0,2.0
65.0,69.0,67.0,1.0,0.49,0.53,0.5,-0.64,-0.61,-0.62,-0.61,-0.59,-0.6,1.0,2.0,15.0
81.0,83.0,82.17,1.0,-0.18,-0.17,-0.18,-0.2,-0.19,-0.2,0.96,0.97,0.96,1.0,2.0,12.0
52.0,52.0,52.0,1.0,0.4,0.42,0.41,-0.01,-0.0,-0.01,-0.92,-0.9,-0.91,1.0,2.0,30.0
67.0,102.0,76.8,1.0,-0.39,-0.38,-0.39,0.38,0.41,0.4,-0.85,-0.81,-0.83,1.0,2.0,4.0
66.0,70.0,68.17,0.99,-0.32,-0.3,-0.31,0.31,0.35,0.33,-0.89,-0.88,-0.89,1.0,2.0,19.0
69.0,71.0,69.67,1.0,-0.46,-0.45,-0.45,0.07,0.09,0.08,-0.9,-0.88,-0.89,1.0,2.0,15.0
53.0,55.0,53.67,1.0,-0.49,-0.49,-0.49,-0.71,-0.71,-0.71,0.5,0.5,0.5,1.0,2.0,11.0
53.0,54.0,53.67,1.0,-0.32,-0.31,-0.32,-0.34,-0.34,-0.34,0.88,0.88,0.88,1.0,2.0,6.0
54.0,58.0,55.6,1.0,0.14,0.14,0.14,0.03,0.03,0.03,0.99,1.0,0.99,1.0,2.0,16.0
76.0,83.0,79.67,0.99,-0.27,-0.26,-0.26,0.11,0.13,0.12,-0.95,-0.94,-0.95,1.0,2.0,13.0
76.0,80.0,77.33,1.0,-0.58,-0.57,-0.58,0.05,0.07,0.06,-0.82,-0.81,-0.82,1.0,2.0,28.0
76.0,80.0,77.6,1.0,-0.56,-0.55,-0.55,0.26,0.28,0.27,-0.8,-0.78,-0.79,1.0,2.0,28.0
75.0,77.0,75.83,1.01,0.4,0.41,0.4,0.22,0.26,0.24,0.88,0.9,0.89,1.0,2.0,13.0
74.0,76.0,74.86,0.99,-0.05,-0.04,-0.05,0.15,0.16,0.16,-0.98,-0.97,-0.98,1.0,2.0,13.0
66.0,67.0,66.29,0.99,-0.29,-0.29,-0.29,-0.51,-0.5,-0.51,0.8,0.81,0.81,1.0,2.0,22.0
51.0,59.0,55.0,0.99,0.08,0.09,0.09,0.32,0.33,0.32,-0.94,-0.93,-0.93,1.0,2.0,0.0
79.0,81.0,80.6,1.0,0.11,0.13,0.12,-0.93,-0.88,-0.89,0.42,0.45,0.44,1.0,2.0,13.0
47.0,47.0,47.0,1.0,-0.31,-0.29,-0.3,-0.54,-0.52,-0.53,-0.8,-0.77,-0.79,1.0,2.0,20.0
54.0,58.0,56.17,1.0,0.14,0.14,0.14,-0.98,-0.97,-0.98,0.15,0.16,0.16,1.0,2.0,0.0
75.0,78.0,75.86,1.01,0.39,0.42,0.4,0.26,0.28,0.26,0.87,0.89,0.89,1.0,2.0,13.0
77.0,80.0,78.0,1.0,-0.24,-0.23,-0.23,0.14,0.15,0.14,-0.97,-0.96,-0.96,1.0,2.0,4.0
70.0,71.0,70.4,1.0,0.34,0.34,0.34,-0.92,-0.92,-0.92,0.2,0.21,0.2,1.0,2.0,2.0
76.0,77.0,76.33,1.0,-0.47,-0.46,-0.46,-0.03,-0.01,-0.02,-0.9,-0.88,-0.89,1.0,2.0,4.0
69.0,70.0,69.6,0.99,-0.45,-0.44,-0.45,0.06,0.08,0.07,-0.89,-0.88,-0.88,1.0,2.0,27.0
77.0,91.0,83.4,1.0,0.65,0.66,0.65,0.75,0.76,0.76,-0.04,-0.01,-0.02,1.0,2.0,13.0
53.0,55.0,53.86,0.99,-0.24,-0.24,-0.24,-0.96,-0.95,-0.95,0.14,0.15,0.15,1.0,2.0,6.0
48.0,49.0,48.17,1.0,-0.25,-0.23,-0.23,-0.21,-0.18,-0.2,-0.96,-0.94,-0.95,1.0,2.0,5.0
64.0,68.0,66.14,1.0,-0.63,-0.63,-0.63,0.13,0.14,0.14,-0.77,-0.76,-0.76,1.0,2.0,21.0
100.0,101.0,100.5,1.0,0.1,0.1,0.1,0.2,0.22,0.21,-0.98,-0.97,-0.97,1.0,2.0,3.0
64.0,65.0,64.33,0.99,-0.55,-0.54,-0.54,-0.37,-0.36,-0.37,-0.75,-0.75,-0.75,1.0,2.0,9.0
58.0,59.0,58.4,1.0,-0.3,-0.3,-0.3,0.05,0.06,0.06,0.95,0.96,0.96,1.0,2.0,16.0
75.0,79.0,77.0,1.0,-0.6,-0.59,-0.59,0.01,0.03,0.02,-0.82,-0.8,-0.81,1.0,2.0,28.0
65.0,67.0,66.0,1.0,0.26,0.27,0.27,-0.74,-0.73,-0.74,-0.63,-0.62,-0.63,1.0,2.0,2.0
52.0,53.0,52.6,1.0,-0.24,-0.24,-0.24,-0.18,-0.17,-0.18,-0.96,-0.95,-0.96,1.0,2.0,3.0
50.0,52.0,51.17,0.99,-0.3,-0.29,-0.3,0.21,0.22,0.21,-0.93,-0.92,-0.93,1.0,2.0,30.0
52.0,55.0,53.6,1.0,-0.33,-0.32,-0.33,-0.22,-0.21,-0.22,0.91,0.92,0.92,1.0,2.0,6.0
71.0,74.0,72.83,1.0,0.09,0.1,0.1,-0.33,-0.32,-0.32,-0.95,-0.94,-0.94,1.0,2.0,1.0
64.0,66.0,65.0,0.99,-0.36,-0.35,-0.35,-0.1,-0.08,-0.09,-0.93,-0.92,-0.93,1.0,2.0,27.0
48.0,48.0,48.0,1.0,-0.24,-0.22,-0.23,-0.21,-0.17,-0.19,-0.96,-0.94,-0.95,1.0,2.0,5.0
51.0,51.0,51.0,1.0,-0.27,-0.26,-0.27,-0.52,-0.51,-0.52,-0.82,-0.81,-0.82,1.0,2.0,3.0
73.0,74.0,73.83,1.0,-0.1,-0.09,-0.1,0.54,0.54,0.54,-0.84,-0.84,-0.84,1.0,2.0,1.0
54.0,57.0,55.5,0.99,-0.86,-0.85,-0.85,-0.13,-0.12,-0.12,-0.5,-0.48,-0.49,1.0,2.0,10.0
50.0,52.0,50.83,1.0,-0.32,-0.32,-0.32,-0.88,-0.88,-0.88,0.35,0.36,0.35,1.0,2.0,16.0
64.0,65.0,64.4,0.99,-0.36,-0.35,-0.36,-0.09,-0.07,-0.08,-0.93,-0.92,-0.92,1.0,2.0,27.0
76.0,79.0,77.86,1.01,0.27,0.28,0.27,-0.29,-0.28,-0.28,0.92,0.93,0.93,1.0,2.0,13.0
65.0,67.0,66.0,1.0,-0.18,-0.17,-0.17,0.31,0.32,0.31,-0.94,-0.93,-0.94,1.0,2.0,1.0
69.0,72.0,70.5,1.0,-0.46,-0.45,-0.45,0.07,0.09,0.08,-0.9,-0.88,-0.89,1.0,2.0,15.0
53.0,59.0,55.17,0.99,-0.28,-0.26,-0.27,-0.45,-0.43,-0.44,-0.86,-0.84,-0.85,1.0,2.0,30.0
51.0,52.0,51.17,1.0,-0.27,-0.26,-0.27,-0.52,-0.51,-0.52,-0.82,-0.81,-0.82,1.0,2.0,3.0
54.0,55.0,54.2,1.0,-0.51,-0.5,-0.51,-0.19,-0.18,-0.19,0.84,0.85,0.85,1.0,2.0,16.0
61.0,64.0,62.33,0.99,-0.0,0.0,-0.0,0.3,0.31,0.3,-0.95,-0.94,-0.94,1.0,2.0,0.0
66.0,68.0,67.33,1.0,-0.64,-0.63,-0.63,0.12,0.14,0.13,-0.76,-0.76,-0.76,1.0,2.0,21.0
50.0,50.0,50.0,1.0,-0.25,-0.24,-0.25,-0.49,-0.48,-0.49,-0.85,-0.83,-0.84,1.0,2.0,3.0
50.0,51.0,50.33,1.0,0.07,0.07,0.07,0.02,0.02,0.02,-1.0,-1.0,-1.0,1.0,2.0,3.0
80.0,85.0,82.67,1.01,0.3,0.32,0.31,-0.36,-0.33,-0.35,0.87,0.9,0.89,1.0,2.0,13.0
67.0,70.0,67.5,0.99,-0.02,-0.02,-0.02,-0.86,-0.86,-0.86,0.49,0.5,0.49,1.0,2.0,28.0
67.0,68.0,67.6,1.0,-0.62,-0.61,-0.62,-0.02,-0.01,-0.01,-0.79,-0.78,-0.79,1.0,2.0,21.0
64.0,65.0,64.67,1.0,0.67,0.68,0.67,0.43,0.44,0.43,-0.61,-0.6,-0.6,1.0,2.0,22.0
56.0,58.0,57.0,0.99,0.43,0.43,0.43,-0.81,-0.8,-0.81,0.38,0.39,0.39,1.0,2.0,6.0
75.0,77.0,76.17,1.0,-0.44,-0.43,-0.43,0.2,0.21,0.2,-0.89,-0.87,-0.88,1.0,2.0,4.0
60.0,64.0,61.67,1.0,0.56,0.58,0.56,0.02,0.02,0.02,-0.83,-0.82,-0.82,1.0,2.0,27.0
73.0,76.0,74.0,1.0,-0.31,-0.28,-0.29,0.9,0.96,0.94,-0.2,-0.18,-0.19,1.0,2.0,4.0
61.0,63.0,61.83,1.0,-0.05,-0.05,-0.05,-0.67,-0.66,-0.66,0.74,0.75,0.75,1.0,2.0,27.0
63.0,64.0,63.8,1.0,-0.66,-0.64,-0.65,0.14,0.17,0.14,-0.76,-0.74,-0.75,1.0,2.0,22.0
53.0,53.0,53.0,1.0,0.05,0.05,0.05,0.34,0.35,0.35,-0.94,-0.94,-0.94,1.0,2.0,3.0
65.0,68.0,67.0,1.0,-0.71,-0.41,-0.42,-0.06,0.17,0.13,-0.95,-0.77,-0.9,1.0,2.0,15.0
70.0,73.0,71.8,1.0,0.45,0.45,0.45,-0.81,-0.8,-0.81,-0.37,-0.36,-0.37,1.0,2.0,1.0
60.0,62.0,61.0,1.0,0.07,0.08,0.08,-0.44,-0.43,-0.43,-0.9,-0.89,-0.9,1.0,2.0,1.0
53.0,54.0,53.4,0.99,-0.05,-0.04,-0.04,0.45,0.45,0.45,-0.89,-0.88,-0.88,1.0,2.0,0.0
50.0,50.0,50.0,1.0,-0.25,-0.24,-0.25,-0.49,-0.47,-0.48,-0.85,-0.83,-0.84,1.0,2.0,3.0
74.0,75.0,74.83,0.99,0.02,0.02,0.02,-0.38,-0.38,-0.38,-0.92,-0.91,-0.92,1.0,2.0,26.0
59.0,64.0,61.33,1.0,0.41,0.41,0.41,0.85,0.85,0.85,0.3,0.31,0.31,1.0,2.0,2.0
46.0,46.0,46.0,1.0,-0.86,-0.08,-0.47,-0.32,1.06,0.55,-1.03,0.02,-0.54,1.0,2.0,20.0
71.0,73.0,72.0,0.99,-0.43,-0.41,-0.42,0.44,0.48,0.46,-0.78,-0.77,-0.77,1.0,2.0,19.0
80.0,82.0,81.0,0.99,-0.3,-0.24,-0.27,0.1,0.22,0.13,-0.96,-0.89,-0.94,1.0,2.0,13.0
55.0,58.0,56.17,0.99,0.51,0.52,0.52,-0.81,-0.81,-0.81,0.25,0.26,0.25,1.0,2.0,6.0
75.0,79.0,76.83,1.0,-0.47,-0.46,-0.47,-0.02,-0.01,-0.01,-0.9,-0.88,-0.89,1.0,2.0,4.0
70.0,72.0,71.0,1.0,0.32,0.33,0.32,-0.47,-0.46,-0.46,-0.83,-0.83,-0.83,1.0,2.0,2.0
77.0,90.0,83.33,0.99,-0.25,-0.22,-0.23,0.07,0.19,0.14,-0.97,-0.93,-0.95,1.0,2.0,13.0
58.0,63.0,60.5,0.99,-0.53,-0.52,-0.53,-0.68,-0.67,-0.68,-0.5,-0.49,-0.5,1.0,2.0,9.0
55.0,57.0,56.2,1.0,-0.39,-0.38,-0.39,-0.73,-0.73,-0.73,0.55,0.56,0.56,1.0,2.0,11.0
62.0,64.0,62.83,1.0,-0.64,-0.62,-0.63,-0.67,-0.67,-0.67,-0.39,-0.37,-0.38,1.0,2.0,9.0
65.0,67.0,66.0,0.99,-0.47,-0.46,-0.47,0.0,0.02,0.01,-0.88,-0.87,-0.88,1.0,2.0,27.0
49.0,50.0,49.5,0.99,-0.3,-0.29,-0.3,0.21,0.22,0.22,-0.93,-0.92,-0.92,1.0,2.0,30.0
56.0,59.0,57.75,1.0,-0.23,-0.21,-0.22,0.24,0.26,0.25,-0.94,-0.93,-0.94,1.0,2.0,16.0
67.0,68.0,67.67,1.0,0.28,0.29,0.28,-0.54,-0.53,-0.54,-0.8,-0.8,-0.8,1.0,2.0,2.0
67.0,73.0,69.6,1.0,-0.49,-0.45,-0.46,-0.22,0.27,0.18,-0.91,-0.84,-0.87,1.0,2.0,4.0
50.0,59.0,53.83,0.99,-0.16,-0.15,-0.16,-0.03,-0.02,-0.03,-0.99,-0.98,-0.98,1.0,2.0,16.0
67.0,69.0,67.5,0.99,-0.74,-0.74,-0.74,-0.46,-0.46,-0.46,0.48,0.48,0.48,1.0,2.0,14.0
60.0,62.0,60.67,1.0,-0.48,-0.46,-0.47,-0.05,-0.02,-0.04,-0.89,-0.88,-0.88,1.0,2.0,22.0
69.0,70.0,69.43,0.99,-0.31,-0.3,-0.31,0.31,0.37,0.33,-0.89,-0.88,-0.89,1.0,2.0,19.0
73.0,76.0,74.2,1.0,-0.11,-0.1,-0.1,0.42,0.43,0.43,-0.9,-0.9,-0.9,1.0,2.0,1.0
59.0,60.0,59.5,1.01,0.54,0.55,0.55,0.11,0.12,0.11,0.83,0.84,0.84,1.0,2.0,25.0
63.0,63.0,63.0,0.99,-0.56,-0.55,-0.56,-0.62,-0.61,-0.61,-0.55,-0.54,-0.55,1.0,2.0,9.0
46.0,48.0,47.0,1.0,-0.19,-0.18,-0.19,-0.71,-0.7,-0.7,0.68,0.69,0.68,1.0,2.0,5.0
68.0,69.0,68.5,1.0,-0.25,-0.24,-0.24,0.2,0.22,0.21,-0.95,-0.94,-0.94,1.0,2.0,26.0
59.0,60.0,59.67,1.0,-0.47,-0.46,-0.47,-0.05,-0.04,-0.04,-0.89,-0.88,-0.88,1.0,2.0,22.0
68.0,72.0,69.33,0.99,-0.25,-0.24,-0.24,0.2,0.21,0.21,-0.95,-0.94,-0.94,1.0,2.0,26.0
59.0,64.0,61.0,1.01,0.43,0.44,0.43,-0.46,-0.45,-0.45,0.78,0.79,0.79,1.0,2.0,25.0
94.0,95.0,94.83,1.0,0.17,0.18,0.17,0.28,0.31,0.3,-0.95,-0.93,-0.94,1.0,2.0,5.0
60.0,67.0,62.0,1.0,-0.54,-0.31,-0.51,-0.13,1.1,-0.04,-1.0,-0.76,-0.84,1.0,2.0,25.0
66.0,66.0,66.0,1.0,0.31,0.32,0.32,-0.0,0.0,0.0,-0.95,-0.95,-0.95,1.0,2.0,3.0
53.0,54.0,53.83,1.0,-0.54,-0.54,-0.54,-0.68,-0.67,-0.68,0.49,0.49,0.49,1.0,2.0,11.0
53.0,54.0,53.33,1.0,-0.57,-0.56,-0.56,-0.7,-0.7,-0.7,0.43,0.44,0.43,1.0,2.0,11.0
72.0,75.0,74.4,0.99,-0.42,-0.42,-0.42,-0.9,-0.89,-0.9,0.1,0.11,0.1,1.0,2.0,28.0
58.0,59.0,58.83,1.0,0.27,0.27,0.27,0.86,0.87,0.86,-0.44,-0.43,-0.44,1.0,2.0,0.0
65.0,65.0,65.0,1.01,-0.98,0.74,-0.29,-1.01,0.82,0.14,-1.01,1.61,-0.66,1.0,2.0,30.0
56.0,60.0,57.8,1.0,-0.32,-0.31,-0.32,-0.79,-0.78,-0.79,0.52,0.53,0.52,1.0,2.0,10.0
69.0,72.0,70.17,1.0,-0.32,-0.3,-0.31,0.12,0.17,0.13,-0.96,-0.93,-0.94,1.0,2.0,4.0
84.0,85.0,84.57,0.99,-0.24,-0.23,-0.24,-0.02,-0.01,-0.01,-0.97,-0.95,-0.96,1.0,2.0,13.0
52.0,54.0,53.2,1.0,-0.33,-0.33,-0.33,-0.24,-0.23,-0.24,0.91,0.91,0.91,1.0,2.0,6.0
62.0,63.0,62.67,1.0,0.42,0.43,0.43,-0.17,-0.16,-0.16,-0.89,-0.88,-0.89,1.0,2.0,27.0
52.0,53.0,52.71,1.0,-0.17,-0.17,-0.17,0.07,0.07,0.07,-0.99,-0.98,-0.99,1.0,2.0,3.0
51.0,52.0,51.5,1.0,-0.43,-0.42,-0.42,0.16,0.18,0.17,-0.9,-0.88,-0.89,1.0,2.0,20.0
56.0,59.0,58.17,1.0,-0.3,-0.3,-0.3,0.05,0.06,0.06,0.95,0.96,0.96,1.0,2.0,16.0
49.0,50.0,49.5,1.0,0.49,0.5,0.49,0.11,0.12,0.12,-0.86,-0.85,-0.86,1.0,2.0,30.0
76.0,82.0,78.4,1.0,-0.44,-0.43,-0.44,-0.13,-0.07,-0.08,-0.93,-0.86,-0.9,1.0,2.0,4.0
52.0,54.0,53.0,1.0,0.48,0.49,0.49,0.3,0.31,0.31,-0.82,-0.81,-0.81,1.0,2.0,10.0
49.0,49.0,49.0,1.0,-0.29,-0.27,-0.28,0.17,0.18,0.17,-0.95,-0.94,-0.94,1.0,2.0,20.0
48.0,50.0,49.14,1.0,-0.17,-0.16,-0.16,0.21,0.22,0.21,-0.97,-0.96,-0.96,1.0,2.0,5.0
64.0,65.0,64.6,0.99,-0.58,-0.57,-0.57,0.19,0.21,0.2,-0.79,-0.78,-0.79,1.0,2.0,27.0
65.0,67.0,65.67,0.99,-0.31,-0.3,-0.31,-0.85,-0.85,-0.85,0.41,0.42,0.42,1.0,2.0,15.0
56.0,59.0,56.83,0.99,0.49,0.5,0.5,-0.83,-0.81,-0.82,0.24,0.27,0.26,1.0,2.0,6.0
68.0,69.0,68.17,1.0,-0.35,-0.34,-0.35,-0.13,-0.11,-0.12,-0.94,-0.92,-0.93,1.0,2.0,15.0
53.0,55.0,54.17,1.0,0.41,0.42,0.41,-0.36,-0.35,-0.36,-0.85,-0.84,-0.84,1.0,2.0,3.0
50.0,51.0,50.5,1.0,-0.27,-0.26,-0.27,-0.52,-0.51,-0.52,-0.82,-0.81,-0.82,1.0,2.0,3.0
66.0,68.0,66.83,1.0,-0.56,-0.55,-0.55,0.28,0.3,0.29,-0.8,-0.78,-0.79,1.0,2.0,28.0
46.0,46.0,46.0,1.0,-0.28,-0.27,-0.27,-0.9,-0.86,-0.87,0.4,0.42,0.41,1.0,2.0,5.0
76.0,80.0,77.8,1.0,-0.37,-0.36,-0.37,-0.22,-0.22,-0.22,0.89,0.91,0.9,1.0,2.0,12.0
51.0,54.0,52.6,0.99,-0.28,-0.26,-0.27,-0.45,-0.43,-0.44,-0.86,-0.84,-0.85,1.0,2.0,30.0
62.0,63.0,62.5,0.99,-0.51,-0.5,-0.5,-0.69,-0.67,-0.68,-0.53,-0.51,-0.52,1.0,2.0,9.0
51.0,54.0,52.29,1.0,0.41,0.42,0.42,-0.36,-0.35,-0.36,-0.84,-0.84,-0.84,1.0,2.0,3.0
70.0,72.0,70.83,0.99,-0.36,-0.35,-0.35,0.54,0.55,0.55,-0.76,-0.75,-0.75,1.0,2.0,26.0
48.0,55.0,51.67,0.99,-0.49,-0.47,-0.48,-0.12,-0.1,-0.11,-0.87,-0.86,-0.86,1.0,2.0,30.0
60.0,63.0,61.8,1.0,0.83,0.83,0.83,0.17,0.17,0.17,-0.53,-0.53,-0.53,1.0,2.0,1.0
70.0,70.0,70.0,1.0,0.12,0.13,0.12,-0.18,-0.12,-0.16,-0.99,-0.95,-0.97,1.0,2.0,19.0
71.0,74.0,72.8,1.0,-0.04,-0.03,-0.03,0.24,0.26,0.25,-0.97,-0.96,-0.96,1.0,2.0,26.0
52.0,56.0,54.17,0.99,-0.44,-0.43,-0.43,-0.55,-0.52,-0.53,-0.72,-0.7,-0.71,1.0,2.0,25.0
60.0,67.0,63.33,1.01,-0.05,-0.04,-0.04,-0.23,-0.22,-0.22,0.98,0.99,0.98,1.0,2.0,25.0
81.0,85.0,82.5,1.0,-0.27,-0.26,-0.27,-0.21,-0.2,-0.21,0.93,0.94,0.94,1.0,2.0,12.0
59.0,60.0,59.67,0.99,-0.56,-0.56,-0.56,-0.62,-0.61,-0.62,-0.55,-0.54,-0.54,1.0,2.0,9.0
53.0,56.0,54.83,1.0,-0.12,-0.11,-0.12,-0.96,-0.95,-0.96,0.24,0.25,0.25,1.0,2.0,16.0
72.0,73.0,72.5,0.99,-0.01,0.0,-0.0,-0.38,-0.37,-0.37,-0.93,-0.92,-0.92,1.0,2.0,26.0
59.0,61.0,60.5,1.0,0.74,0.75,0.75,-0.03,-0.02,-0.03,-0.67,-0.66,-0.66,1.0,2.0,1.0
76.0,77.0,76.8,1.0,-0.51,-0.5,-0.5,0.06,0.08,0.07,-0.87,-0.85,-0.86,1.0,2.0,28.0
47.0,48.0,47.6,1.0,-0.13,-0.11,-0.12,-0.31,-0.2,-0.23,-0.97,-0.95,-0.97,1.0,2.0,5.0
73.0,77.0,75.83,1.0,-0.55,-0.55,-0.55,-0.02,-0.0,-0.01,-0.84,-0.83,-0.84,1.0,2.0,28.0
67.0,67.0,67.0,0.99,-0.21,-0.2,-0.2,-0.95,-0.94,-0.94,0.23,0.24,0.24,1.0,2.0,14.0
77.0,79.0,78.0,1.0,-0.59,-0.58,-0.58,0.24,0.26,0.25,-0.78,-0.77,-0.78,1.0,2.0,28.0
51.0,51.0,51.0,1.0,0.05,0.05,0.05,0.34,0.35,0.35,-0.94,-0.93,-0.94,1.0,2.0,3.0
52.0,55.0,53.83,1.0,0.53,0.55,0.54,0.2,0.21,0.21,-0.82,-0.81,-0.81,1.0,2.0,10.0
59.0,60.0,59.33,1.0,-0.22,-0.22,-0.22,0.25,0.26,0.25,-0.94,-0.93,-0.94,1.0,3.0,16.0
63.0,64.0,63.67,0.99,-0.27,-0.27,-0.27,-0.76,-0.75,-0.76,0.58,0.59,0.59,1.0,3.0,15.0
62.0,64.0,63.0,1.0,-0.65,-0.64,-0.64,-0.59,-0.58,-0.59,-0.48,-0.47,-0.48,1.0,3.0,9.0
81.0,84.0,81.83,1.0,0.44,0.46,0.45,-0.13,-0.12,-0.12,-0.89,-0.88,-0.89,1.0,3.0,12.0
69.0,74.0,71.5,1.01,0.25,0.25,0.25,0.34,0.35,0.34,0.91,0.91,0.91,1.0,3.0,14.0
77.0,77.0,77.0,1.0,-0.41,-0.4,-0.4,0.29,0.31,0.3,-0.87,-0.86,-0.87,1.0,3.0,28.0
58.0,59.0,58.71,1.0,0.32,0.33,0.33,-0.86,-0.85,-0.85,-0.4,-0.39,-0.4,1.0,3.0,6.0
82.0,86.0,83.6,1.0,0.44,0.46,0.45,-0.13,-0.12,-0.13,-0.89,-0.88,-0.88,1.0,3.0,12.0
71.0,74.0,71.83,1.0,-0.5,-0.49,-0.49,0.05,0.07,0.06,-0.87,-0.86,-0.87,1.0,3.0,28.0
63.0,64.0,63.2,1.0,0.51,0.52,0.51,0.29,0.3,0.29,-0.81,-0.8,-0.81,1.0,3.0,10.0
63.0,66.0,64.17,1.0,0.51,0.52,0.51,0.28,0.3,0.29,-0.81,-0.8,-0.81,1.0,3.0,10.0
75.0,78.0,76.67,1.0,-0.3,-0.28,-0.29,0.91,1.01,0.93,-0.25,-0.16,-0.22,1.0,3.0,4.0
63.0,64.0,63.4,0.99,-0.29,-0.28,-0.29,-0.88,-0.87,-0.88,0.36,0.37,0.37,1.0,3.0,15.0
68.0,70.0,68.4,1.0,-0.25,-0.24,-0.24,0.2,0.22,0.21,-0.95,-0.94,-0.94,1.0,3.0,26.0
75.0,75.0,75.0,1.0,-0.3,-0.27,-0.29,0.92,0.94,0.93,-0.22,-0.21,-0.22,1.0,3.0,4.0
73.0,85.0,79.33,0.99,0.41,0.45,0.44,-0.42,-0.37,-0.37,-0.82,-0.8,-0.81,1.0,3.0,14.0
69.0,73.0,71.5,1.0,0.26,0.26,0.26,0.96,0.97,0.97,-0.06,-0.05,-0.05,1.0,3.0,14.0
66.0,71.0,68.8,1.0,-0.55,-0.54,-0.55,0.37,0.38,0.38,-0.76,-0.75,-0.75,1.0,3.0,28.0
51.0,59.0,53.2,1.0,0.49,0.5,0.49,0.11,0.12,0.12,-0.86,-0.85,-0.86,1.0,3.0,30.0
63.0,69.0,64.71,1.0,-0.65,-0.63,-0.64,-0.59,-0.58,-0.59,-0.49,-0.47,-0.48,1.0,3.0,9.0
70.0,70.0,70.0,1.0,0.25,0.25,0.25,-0.73,-0.72,-0.73,-0.65,-0.64,-0.64,1.0,3.0,2.0
74.0,77.0,75.17,0.99,-0.2,-0.2,-0.2,-0.97,-0.97,-0.97,-0.07,-0.07,-0.07,1.0,3.0,14.0
59.0,60.0,59.14,0.99,-0.6,-0.58,-0.59,-0.59,-0.58,-0.58,-0.56,-0.55,-0.55,1.0,3.0,9.0
51.0,52.0,51.33,0.99,-0.34,-0.33,-0.34,0.28,0.29,0.29,-0.89,-0.88,-0.89,1.0,3.0,11.0
56.0,58.0,57.0,1.0,-0.31,-0.31,-0.31,-0.79,-0.78,-0.79,0.52,0.53,0.53,1.0,3.0,10.0
75.0,81.0,76.6,1.0,-0.29,-0.28,-0.28,0.89,0.92,0.91,-0.32,-0.29,-0.3,1.0,3.0,4.0
81.0,83.0,82.4,1.0,0.2,0.2,0.2,0.98,0.99,0.98,-0.06,-0.05,-0.05,1.0,3.0,14.0
57.0,60.0,58.43,1.0,-0.37,-0.36,-0.36,-0.17,-0.16,-0.16,0.91,0.92,0.92,1.0,3.0,25.0
69.0,70.0,69.83,0.99,-0.32,-0.3,-0.31,0.3,0.33,0.32,-0.9,-0.88,-0.89,1.0,3.0,19.0
85.0,88.0,87.0,0.99,-0.22,-0.21,-0.22,0.12,0.14,0.13,-0.96,-0.93,-0.96,1.0,3.0,13.0
71.0,74.0,72.5,1.0,-0.1,-0.09,-0.1,0.4,0.41,0.4,-0.92,-0.91,-0.91,1.0,3.0,1.0
61.0,64.0,62.57,1.0,-0.61,-0.6,-0.6,-0.77,-0.77,-0.77,-0.2,-0.18,-0.19,1.0,3.0,9.0
81.0,82.0,81.29,1.0,-0.32,-0.27,-0.28,0.89,0.94,0.91,-0.32,-0.26,-0.3,1.0,3.0,4.0
58.0,59.0,58.83,1.01,0.2,0.21,0.21,-0.25,-0.24,-0.25,0.95,0.96,0.95,1.0,3.0,25.0
70.0,72.0,70.67,1.0,-0.35,-0.35,-0.35,-0.14,-0.12,-0.13,-0.94,-0.92,-0.93,1.0,3.0,15.0
50.0,52.0,50.5,1.0,-0.46,-0.45,-0.46,0.16,0.17,0.16,-0.88,-0.87,-0.87,1.0,3.0,20.0
66.0,67.0,66.8,1.0,0.78,0.79,0.79,-0.04,-0.04,-0.04,-0.62,-0.61,-0.62,1.0,3.0,1.0
60.0,61.0,60.67,1.0,-0.65,-0.63,-0.64,-0.59,-0.58,-0.59,-0.49,-0.47,-0.48,1.0,3.0,9.0
85.0,86.0,85.4,1.0,-0.27,-0.27,-0.27,-0.13,-0.12,-0.12,0.95,0.96,0.95,1.0,3.0,12.0
61.0,63.0,62.0,1.0,-0.66,-0.64,-0.65,-0.57,-0.56,-0.57,-0.5,-0.49,-0.49,1.0,3.0,9.0
77.0,79.0,77.29,1.0,-0.32,-0.29,-0.3,0.9,0.95,0.93,-0.28,-0.1,-0.2,1.0,3.0,4.0
61.0,63.0,62.17,1.0,-0.61,-0.6,-0.6,-0.77,-0.77,-0.77,-0.19,-0.17,-0.19,1.0,3.0,9.0
58.0,59.0,58.71,0.99,-0.6,-0.58,-0.59,-0.59,-0.58,-0.58,-0.56,-0.55,-0.55,1.0,3.0,9.0
56.0,57.0,56.83,0.99,-0.37,-0.36,-0.37,-0.43,-0.41,-0.41,-0.83,-0.82,-0.83,1.0,3.0,16.0
68.0,68.0,68.0,1.0,-0.35,-0.35,-0.35,-0.13,-0.1,-0.12,-0.94,-0.92,-0.93,1.0,3.0,15.0
65.0,66.0,65.5,1.0,0.78,0.79,0.78,-0.04,-0.04,-0.04,-0.62,-0.61,-0.62,1.0,3.0,1.0
56.0,59.0,57.83,0.99,-0.4,-0.39,-0.4,-0.55,-0.52,-0.54,-0.74,-0.73,-0.74,1.0,3.0,16.0
85.0,86.0,85.17,1.0,-0.27,-0.27,-0.27,-0.13,-0.13,-0.13,0.95,0.96,0.95,1.0,3.0,12.0
64.0,65.0,64.5,1.0,-0.65,-0.64,-0.65,-0.59,-0.58,-0.59,-0.49,-0.47,-0.48,1.0,3.0,9.0
63.0,64.0,63.17,0.99,-0.29,-0.28,-0.29,-0.88,-0.88,-0.88,0.37,0.37,0.37,1.0,3.0,15.0
60.0,66.0,62.5,1.0,-0.61,-0.6,-0.6,-0.77,-0.77,-0.77,-0.19,-0.18,-0.18,1.0,3.0,9.0
76.0,77.0,76.33,1.0,-0.41,-0.4,-0.4,0.29,0.31,0.3,-0.87,-0.86,-0.87,1.0,3.0,28.0
86.0,87.0,86.17,1.0,0.45,0.46,0.46,-0.29,-0.28,-0.29,-0.84,-0.83,-0.83,1.0,3.0,14.0
56.0,59.0,56.6,0.99,-0.37,-0.36,-0.37,-0.42,-0.4,-0.41,-0.84,-0.82,-0.83,1.0,3.0,16.0
59.0,60.0,59.6,0.99,-0.05,-0.04,-0.05,0.45,0.46,0.45,-0.88,-0.88,-0.88,1.0,3.0,0.0
78.0,79.0,78.6,1.0,-0.29,-0.28,-0.28,0.91,0.91,0.91,-0.3,-0.28,-0.3,1.0,3.0,4.0
69.0,71.0,70.0,1.0,0.25,0.25,0.25,-0.73,-0.72,-0.73,-0.65,-0.64,-0.64,1.0,3.0,2.0
85.0,87.0,86.5,0.99,-0.24,-0.23,-0.24,-0.03,-0.02,-0.03,-0.97,-0.95,-0.96,1.0,3.0,13.0
84.0,85.0,84.5,1.0,0.17,0.18,0.17,-0.9,-0.89,-0.89,0.39,0.43,0.42,1.0,3.0,13.0
65.0,65.0,65.0,1.0,-0.67,-0.65,-0.66,0.14,0.15,0.14,-0.75,-0.73,-0.74,1.0,3.0,22.0
83.0,86.0,85.33,1.0,0.43,0.48,0.47,-0.64,0.01,-0.03,-0.88,-0.65,-0.87,1.0,3.0,14.0
85.0,87.0,86.0,1.0,-0.27,-0.27,-0.27,-0.12,-0.12,-0.12,0.95,0.96,0.95,1.0,3.0,12.0
69.0,70.0,69.83,1.0,0.25,0.25,0.25,-0.73,-0.72,-0.73,-0.65,-0.64,-0.65,1.0,3.0,2.0
66.0,67.0,66.67,1.0,0.26,0.26,0.26,-0.74,-0.73,-0.73,-0.64,-0.63,-0.63,1.0,3.0,2.0
54.0,56.0,55.5,1.0,0.5,0.51,0.51,0.26,0.27,0.27,-0.82,-0.81,-0.82,1.0,3.0,10.0
88.0,90.0,88.83,0.99,-0.22,-0.21,-0.21,0.11,0.13,0.12,-0.96,-0.95,-0.96,1.0,3.0,13.0
81.0,86.0,83.6,0.99,0.45,0.46,0.46,-0.42,-0.41,-0.42,-0.79,-0.77,-0.78,1.0,3.0,14.0
67.0,68.0,67.83,1.0,-0.51,-0.5,-0.51,0.82,0.83,0.83,-0.25,-0.24,-0.25,1.0,3.0,21.0
59.0,59.0,59.0,1.0,-0.23,-0.22,-0.22,0.24,0.26,0.25,-0.94,-0.93,-0.94,1.0,3.0,16.0
70.0,73.0,71.83,1.0,-0.5,-0.49,-0.49,0.05,0.07,0.07,-0.87,-0.86,-0.87,1.0,3.0,28.0
49.0,49.0,49.0,1.0,-0.19,-0.17,-0.17,0.1,0.14,0.12,-0.99,-0.96,-0.98,1.0,3.0,5.0
62.0,64.0,62.83,1.0,-0.61,-0.59,-0.6,-0.77,-0.77,-0.77,-0.2,-0.18,-0.19,1.0,3.0,9.0
84.0,86.0,85.0,1.0,0.18,0.19,0.18,-0.9,-0.88,-0.89,0.42,0.44,0.43,1.0,3.0,13.0
68.0,68.0,68.0,1.0,-0.25,-0.24,-0.24,0.21,0.22,0.22,-0.94,-0.94,-0.94,1.0,3.0,26.0
59.0,60.0,59.2,1.0,-0.23,-0.21,-0.22,0.24,0.26,0.25,-0.94,-0.93,-0.94,1.0,3.0,16.0
86.0,87.0,86.33,1.0,-0.27,-0.27,-0.27,-0.12,-0.11,-0.12,0.95,0.96,0.95,1.0,3.0,12.0
64.0,65.0,64.5,1.0,-0.66,-0.64,-0.65,-0.59,-0.58,-0.59,-0.49,-0.47,-0.48,1.0,3.0,9.0
66.0,68.0,66.4,1.0,-0.67,-0.65,-0.66,0.14,0.15,0.14,-0.75,-0.73,-0.74,1.0,3.0,22.0
86.0,88.0,87.17,0.99,-0.25,-0.24,-0.24,-0.3,-0.26,-0.27,-0.93,-0.91,-0.92,1.0,3.0,13.0
71.0,74.0,72.5,1.0,-0.46,-0.45,-0.45,0.07,0.09,0.08,-0.9,-0.88,-0.89,1.0,3.0,15.0
48.0,50.0,49.14,1.0,0.36,0.37,0.36,-0.94,-0.92,-0.93,0.0,0.01,0.01,1.0,3.0,5.0
82.0,84.0,82.83,1.0,-0.29,-0.28,-0.28,0.9,0.91,0.9,-0.32,-0.31,-0.31,1.0,3.0,4.0
72.0,74.0,73.0,0.99,-0.21,-0.2,-0.2,-0.97,-0.97,-0.97,-0.08,-0.07,-0.07,1.0,3.0,14.0
52.0,52.0,52.0,0.99,-0.34,-0.33,-0.34,0.28,0.29,0.29,-0.89,-0.88,-0.89,1.0,3.0,11.0
63.0,63.0,63.0,1.0,0.5,0.51,0.51,-0.26,-0.24,-0.25,-0.83,-0.82,-0.82,1.0,3.0,22.0
63.0,65.0,63.33,1.0,0.57,0.58,0.57,0.01,0.01,0.01,-0.82,-0.81,-0.82,1.0,3.0,27.0
63.0,65.0,63.83,1.0,0.51,0.52,0.51,0.29,0.3,0.29,-0.81,-0.8,-0.81,1.0,3.0,10.0
64.0,65.0,64.4,0.99,-0.58,-0.57,-0.57,0.18,0.22,0.2,-0.79,-0.77,-0.78,1.0,3.0,27.0
69.0,72.0,71.17,1.0,-0.46,-0.45,-0.45,0.08,0.1,0.08,-0.9,-0.88,-0.89,1.0,3.0,15.0
77.0,83.0,79.33,1.0,-0.41,-0.4,-0.41,-0.18,-0.15,-0.17,-0.9,-0.89,-0.9,1.0,3.0,28.0
85.0,86.0,85.67,1.0,-0.27,-0.26,-0.27,-0.21,-0.2,-0.2,0.93,0.94,0.94,1.0,3.0,12.0
62.0,62.0,62.0,1.0,0.07,0.08,0.08,-0.44,-0.43,-0.43,-0.9,-0.89,-0.9,1.0,3.0,1.0
82.0,84.0,82.8,1.0,-0.29,-0.27,-0.28,0.9,0.92,0.91,-0.33,-0.3,-0.31,1.0,3.0,4.0
88.0,89.0,88.2,0.99,-0.22,-0.21,-0.22,0.12,0.13,0.12,-0.96,-0.95,-0.96,1.0,3.0,13.0
65.0,65.0,65.0,1.0,-0.65,-0.64,-0.65,-0.59,-0.58,-0.59,-0.49,-0.47,-0.48,1.0,3.0,9.0
84.0,87.0,85.5,0.99,-0.25,-0.24,-0.24,-0.3,-0.28,-0.29,-0.92,-0.91,-0.92,1.0,3.0,13.0
65.0,68.0,66.29,1.0,-0.25,-0.24,-0.24,0.21,0.22,0.22,-0.94,-0.94,-0.94,1.0,3.0,26.0
81.0,85.0,83.83,1.0,0.17,0.18,0.18,-0.9,-0.89,-0.89,0.41,0.44,0.42,1.0,3.0,13.0
64.0,65.0,64.5,0.99,-0.58,-0.57,-0.57,0.19,0.21,0.2,-0.79,-0.78,-0.79,1.0,3.0,27.0
72.0,75.0,73.2,1.0,-0.1,-0.1,-0.1,0.42,0.42,0.42,-0.91,-0.9,-0.91,1.0,3.0,1.0
70.0,71.0,70.83,1.0,-0.55,-0.54,-0.55,0.37,0.39,0.38,-0.76,-0.75,-0.75,1.0,3.0,28.0
80.0,83.0,82.0,1.0,-0.29,-0.28,-0.28,0.88,0.91,0.9,-0.32,-0.31,-0.31,1.0,3.0,4.0
73.0,75.0,73.8,1.0,-0.46,-0.45,-0.45,0.07,0.09,0.08,-0.9,-0.88,-0.89,1.0,3.0,15.0
59.0,61.0,59.67,1.0,-0.7,-0.69,-0.7,-0.71,-0.7,-0.71,-0.1,-0.09,-0.09,1.0,3.0,9.0
76.0,76.0,76.0,0.99,-0.01,-0.0,-0.0,-0.38,-0.38,-0.38,-0.92,-0.92,-0.92,1.0,3.0,26.0
74.0,75.0,74.2,1.0,-0.75,0.25,-0.56,-0.45,0.83,0.11,-1.13,-0.39,-0.78,1.0,3.0,28.0
61.0,64.0,62.17,1.0,0.07,0.08,0.08,-0.44,-0.43,-0.44,-0.9,-0.89,-0.9,1.0,3.0,1.0
69.0,73.0,72.0,0.99,-0.32,-0.3,-0.31,0.29,0.33,0.31,-0.9,-0.89,-0.89,1.0,3.0,19.0
74.0,78.0,76.0,1.01,0.27,0.27,0.27,0.97,0.97,0.97,-0.07,-0.06,-0.06,1.0,3.0,14.0
83.0,84.0,83.17,1.0,0.44,0.46,0.45,-0.13,-0.11,-0.12,-0.89,-0.88,-0.89,1.0,3.0,12.0
78.0,81.0,79.83,1.0,0.2,0.2,0.2,0.98,0.99,0.98,-0.05,-0.05,-0.05,1.0,3.0,14.0
59.0,60.0,59.17,0.99,-0.6,-0.58,-0.59,-0.59,-0.58,-0.58,-0.56,-0.55,-0.55,1.0,3.0,9.0
59.0,59.0,59.0,1.0,0.27,0.29,0.28,-0.2,-0.19,-0.2,-0.94,-0.93,-0.94,1.0,3.0,25.0
62.0,63.0,62.67,1.0,-0.61,-0.59,-0.6,-0.77,-0.77,-0.77,-0.2,-0.19,-0.19,1.0,3.0,9.0
84.0,86.0,85.2,0.99,-0.25,-0.24,-0.24,-0.27,-0.26,-0.27,-0.93,-0.92,-0.92,1.0,3.0,13.0
71.0,72.0,71.5,1.0,-0.55,-0.54,-0.55,0.37,0.39,0.38,-0.76,-0.75,-0.75,1.0,3.0,28.0
55.0,59.0,56.0,0.99,0.51,0.52,0.52,-0.81,-0.81,-0.81,0.25,0.26,0.26,1.0,3.0,6.0
83.0,86.0,84.5,1.0,0.45,0.48,0.45,-0.13,-0.12,-0.13,-0.9,-0.88,-0.88,1.0,3.0,12.0
63.0,64.0,63.83,0.99,-0.29,-0.28,-0.29,-0.88,-0.88,-0.88,0.36,0.37,0.37,1.0,3.0,15.0
68.0,69.0,68.17,1.0,0.26,0.26,0.26,-0.74,-0.73,-0.73,-0.64,-0.63,-0.64,1.0,3.0,2.0
61.0,62.0,61.5,1.0,0.57,0.58,0.58,0.01,0.01,0.01,-0.82,-0.81,-0.82,1.0,3.0,27.0
49.0,49.0,49.0,1.0,0.38,0.39,0.39,-0.92,-0.91,-0.92,-0.08,-0.06,-0.07,1.0,3.0,5.0
69.0,70.0,69.33,0.99,-0.32,-0.3,-0.31,0.3,0.34,0.32,-0.9,-0.88,-0.89,1.0,3.0,19.0
72.0,76.0,73.5,1.0,-0.1,-0.09,-0.1,0.4,0.4,0.4,-0.92,-0.91,-0.91,1.0,3.0,1.0
52.0,52.0,52.0,0.99,-0.34,-0.33,-0.34,0.28,0.29,0.29,-0.89,-0.88,-0.89,1.0,3.0,11.0
85.0,87.0,85.83,0.99,-0.25,-0.24,-0.24,-0.28,-0.27,-0.27,-0.92,-0.92,-0.92,1.0,3.0,13.0
71.0,72.0,71.17,0.99,-0.02,-0.01,-0.02,-0.21,-0.2,-0.2,-0.98,-0.97,-0.97,1.0,3.0,26.0
68.0,69.0,68.17,1.0,-0.35,-0.34,-0.35,-0.14,-0.11,-0.13,-0.94,-0.92,-0.93,1.0,3.0,15.0
65.0,68.0,67.0,1.0,-0.25,-0.24,-0.24,0.21,0.22,0.22,-0.95,-0.94,-0.94,1.0,3.0,26.0
85.0,87.0,86.0,0.99,-0.26,-0.25,-0.26,-0.3,-0.28,-0.29,-0.92,-0.9,-0.91,1.0,3.0,13.0
48.0,49.0,48.5,1.0,-0.19,-0.17,-0.18,0.1,0.14,0.12,-0.99,-0.96,-0.98,1.0,3.0,5.0
72.0,77.0,73.83,0.99,-0.2,-0.2,-0.2,-0.97,-0.97,-0.97,-0.08,-0.07,-0.07,1.0,3.0,14.0
73.0,75.0,74.2,1.0,-0.46,-0.45,-0.45,0.07,0.09,0.08,-0.9,-0.88,-0.89,1.0,3.0,15.0
49.0,49.0,49.0,1.0,0.36,0.37,0.37,-0.93,-0.92,-0.93,0.01,0.02,0.01,1.0,3.0,5.0
64.0,65.0,64.67,1.0,-0.76,-0.65,-0.66,0.14,0.18,0.15,-0.75,-0.67,-0.74,1.0,3.0,22.0
66.0,67.0,66.2,0.99,-0.47,-0.46,-0.46,0.0,0.02,0.01,-0.88,-0.87,-0.88,1.0,3.0,27.0
64.0,65.0,64.4,0.99,-0.27,-0.26,-0.27,-0.76,-0.75,-0.76,0.58,0.59,0.59,1.0,3.0,15.0
64.0,65.0,64.4,1.0,-0.44,-0.42,-0.43,0.18,0.2,0.19,-0.89,-0.88,-0.89,1.0,3.0,22.0
60.0,63.0,61.83,0.99,-0.53,-0.52,-0.52,-0.6,-0.58,-0.59,-0.61,-0.6,-0.6,1.0,3.0,9.0
85.0,87.0,85.8,1.0,0.45,0.47,0.46,-0.13,-0.12,-0.13,-0.89,-0.87,-0.88,1.0,3.0,12.0
69.0,70.0,69.5,1.0,0.78,0.79,0.78,-0.04,-0.04,-0.04,-0.63,-0.62,-0.62,1.0,3.0,1.0
65.0,66.0,65.67,0.99,-0.47,-0.46,-0.46,0.0,0.02,0.01,-0.88,-0.87,-0.88,1.0,3.0,27.0
64.0,65.0,64.29,1.0,-0.65,-0.64,-0.64,-0.59,-0.58,-0.59,-0.49,-0.47,-0.48,1.0,3.0,9.0
82.0,84.0,83.17,1.0,0.44,0.46,0.45,-0.13,-0.12,-0.12,-0.89,-0.88,-0.89,1.0,3.0,12.0
71.0,74.0,72.8,1.0,0.28,0.3,0.29,0.08,0.13,0.12,-0.97,-0.95,-0.95,1.0,3.0,22.0
83.0,85.0,84.17,1.0,-0.29,-0.27,-0.28,0.9,0.94,0.91,-0.33,-0.29,-0.31,1.0,3.0,4.0
64.0,67.0,65.83,1.0,-0.44,-0.42,-0.43,0.18,0.19,0.19,-0.89,-0.88,-0.89,1.0,3.0,22.0
84.0,86.0,85.6,1.0,-0.27,-0.26,-0.27,-0.12,-0.12,-0.12,0.95,0.96,0.95,1.0,3.0,12.0
73.0,75.0,74.0,1.0,-0.46,-0.45,-0.45,0.07,0.09,0.08,-0.9,-0.88,-0.89,1.0,3.0,15.0
69.0,71.0,70.17,0.99,-0.02,-0.01,-0.01,-0.2,-0.2,-0.2,-0.98,-0.97,-0.97,1.0,3.0,26.0
59.0,59.0,59.0,1.0,0.27,0.29,0.28,-0.2,-0.19,-0.2,-0.94,-0.93,-0.93,1.0,3.0,25.0
61.0,64.0,62.33,1.0,0.07,0.08,0.08,-0.44,-0.43,-0.43,-0.9,-0.89,-0.9,1.0,3.0,1.0
55.0,56.0,55.83,0.99,-0.4,-0.39,-0.4,-0.55,-0.53,-0.54,-0.74,-0.73,-0.74,1.0,3.0,16.0
68.0,69.0,68.67,1.0,0.78,0.79,0.78,-0.04,-0.04,-0.04,-0.62,-0.61,-0.62,1.0,3.0,1.0
64.0,69.0,66.57,1.0,-0.61,-0.59,-0.6,0.04,0.07,0.06,-0.8,-0.78,-0.8,0.0,5.0,21.0
65.0,68.0,66.67,1.0,0.49,0.5,0.5,-0.63,-0.62,-0.62,-0.61,-0.59,-0.6,0.0,5.0,15.0
60.0,73.0,65.67,1.0,-0.29,-0.28,-0.28,-0.54,-0.53,-0.54,0.79,0.8,0.79,0.0,5.0,25.0
73.0,76.0,74.0,1.0,0.05,0.06,0.05,0.51,0.52,0.52,-0.86,-0.85,-0.86,0.0,5.0,1.0
77.0,89.0,83.17,1.01,0.48,0.7,0.5,-0.21,0.15,-0.19,0.82,0.9,0.86,0.0,5.0,14.0
85.0,86.0,85.5,1.0,-0.1,-0.09,-0.1,0.3,0.31,0.31,-0.95,-0.94,-0.95,0.0,5.0,4.0
59.0,61.0,59.67,0.99,-0.28,-0.25,-0.26,-0.97,-0.95,-0.96,0.05,0.06,0.06,0.0,5.0,6.0
86.0,87.0,86.4,0.99,0.33,0.34,0.34,-0.25,-0.24,-0.25,-0.91,-0.9,-0.9,0.0,5.0,14.0
59.0,59.0,59.0,1.0,-0.24,-0.23,-0.23,-0.62,-0.62,-0.62,0.74,0.75,0.75,0.0,5.0,25.0
63.0,66.0,64.33,1.0,-0.78,-0.77,-0.78,-0.04,-0.03,-0.03,-0.63,-0.62,-0.63,0.0,5.0,21.0
62.0,63.0,62.83,1.0,-0.55,-0.54,-0.55,-0.69,-0.68,-0.69,0.46,0.47,0.47,0.0,5.0,11.0
50.0,50.0,50.0,1.0,-0.42,-0.41,-0.41,-0.55,-0.53,-0.54,-0.74,-0.72,-0.73,0.0,5.0,20.0
64.0,70.0,66.83,1.0,-0.61,-0.6,-0.61,0.03,0.05,0.04,-0.8,-0.79,-0.79,0.0,5.0,21.0
65.0,78.0,74.0,1.0,-0.44,0.91,0.38,-1.08,0.53,0.17,-1.09,0.69,-0.57,0.0,5.0,5.0
56.0,65.0,58.83,0.99,-0.35,-0.33,-0.34,0.28,0.29,0.28,-0.89,-0.88,-0.89,0.0,5.0,11.0
68.0,74.0,70.0,0.99,-0.47,-0.46,-0.47,-0.11,-0.09,-0.1,-0.88,-0.86,-0.87,0.0,5.0,27.0
45.0,47.0,45.71,1.0,-0.31,-0.29,-0.3,-0.16,-0.13,-0.14,-0.95,-0.93,-0.94,0.0,5.0,20.0
68.0,75.0,71.0,1.0,-0.46,-0.35,-0.36,-0.35,-0.16,-0.17,-0.93,-0.83,-0.92,0.0,5.0,4.0
60.0,64.0,62.2,0.99,-0.56,-0.55,-0.56,-0.61,-0.61,-0.61,-0.55,-0.55,-0.55,0.0,5.0,9.0
43.0,43.0,43.0,1.0,0.26,0.27,0.26,-0.73,-0.72,-0.73,0.62,0.63,0.63,0.0,5.0,5.0
65.0,68.0,66.5,0.99,-0.27,-0.27,-0.27,-0.55,-0.53,-0.54,-0.79,-0.78,-0.79,0.0,5.0,30.0
49.0,50.0,49.33,1.0,-0.33,-0.31,-0.32,-0.12,-0.1,-0.11,-0.96,-0.93,-0.94,0.0,5.0,20.0
76.0,79.0,77.67,1.0,-0.47,-0.46,-0.46,0.27,0.27,0.27,-0.85,-0.84,-0.85,0.0,5.0,4.0
68.0,84.0,73.83,1.0,0.36,0.37,0.36,0.1,0.11,0.11,-0.93,-0.92,-0.93,0.0,5.0,12.0
59.0,62.0,60.5,1.0,-0.45,-0.44,-0.45,-0.71,-0.7,-0.71,0.53,0.54,0.54,0.0,5.0,11.0
66.0,69.0,67.0,0.99,-0.12,-0.11,-0.11,0.43,0.44,0.43,-0.89,-0.88,-0.89,0.0,5.0,25.0
54.0,59.0,57.83,1.0,-0.21,-0.19,-0.2,-0.01,0.03,0.01,-0.99,-0.96,-0.98,0.0,5.0,5.0
61.0,65.0,62.2,1.01,0.26,0.27,0.27,0.96,0.97,0.97,0.09,0.1,0.1,0.0,5.0,0.0
61.0,67.0,63.6,1.0,0.18,0.19,0.18,-0.23,-0.21,-0.22,-0.96,-0.95,-0.96,0.0,5.0,27.0
61.0,66.0,63.17,1.0,-0.3,-0.29,-0.29,-0.59,-0.58,-0.58,0.75,0.76,0.76,0.0,5.0,25.0
72.0,77.0,73.83,1.0,0.27,0.27,0.27,-0.93,-0.93,-0.93,0.24,0.25,0.25,0.0,5.0,14.0
60.0,64.0,62.43,1.0,0.33,0.33,0.33,0.91,0.91,0.91,-0.27,-0.27,-0.27,0.0,5.0,0.0
60.0,61.0,60.5,1.0,-0.34,-0.33,-0.33,-0.24,-0.24,-0.24,0.91,0.91,0.91,0.0,5.0,6.0
64.0,65.0,64.67,1.0,-0.11,-0.1,-0.11,0.94,0.94,0.94,-0.32,-0.31,-0.32,0.0,5.0,30.0
62.0,65.0,63.8,1.0,-0.79,-0.77,-0.78,-0.06,-0.02,-0.04,-0.63,-0.61,-0.62,0.0,5.0,21.0
51.0,59.0,55.0,1.0,-0.22,-0.19,-0.21,-0.05,-0.01,-0.03,-0.98,-0.96,-0.98,0.0,5.0,5.0
58.0,62.0,60.67,0.99,-0.17,-0.16,-0.17,0.22,0.23,0.22,-0.96,-0.95,-0.95,0.0,5.0,11.0
62.0,64.0,62.83,1.0,-0.28,-0.27,-0.27,-0.16,-0.15,-0.16,0.95,0.96,0.95,0.0,5.0,25.0
69.0,72.0,70.8,0.99,-0.42,-0.41,-0.41,-0.15,-0.12,-0.13,-0.91,-0.88,-0.89,0.0,5.0,11.0
72.0,73.0,72.5,1.0,0.21,0.22,0.21,0.01,0.02,0.01,-0.98,-0.98,-0.98,0.0,5.0,2.0
67.0,69.0,67.8,0.99,-0.27,-0.26,-0.27,-0.55,-0.54,-0.55,-0.79,-0.78,-0.78,0.0,5.0,30.0
86.0,93.0,89.17,1.0,0.48,0.5,0.49,-0.16,-0.15,-0.15,-0.87,-0.85,-0.86,0.0,5.0,12.0
69.0,74.0,70.5,1.0,-0.45,-0.4,-0.45,-0.32,0.04,0.0,-0.96,-0.87,-0.9,0.0,5.0,4.0
55.0,56.0,55.33,0.99,-0.34,-0.33,-0.34,0.28,0.29,0.29,-0.89,-0.88,-0.89,0.0,5.0,11.0
62.0,67.0,63.83,1.0,-0.36,-0.33,-0.34,-0.29,-0.25,-0.27,0.88,0.9,0.9,0.0,5.0,6.0
59.0,63.0,61.0,1.01,0.29,0.29,0.29,0.96,0.97,0.96,0.08,0.08,0.08,0.0,5.0,0.0
77.0,83.0,80.2,1.0,-0.53,-0.52,-0.53,0.17,0.19,0.18,-0.84,-0.83,-0.83,0.0,5.0,1.0
79.0,79.0,79.0,1.0,-0.39,-0.38,-0.39,-0.43,-0.41,-0.42,-0.83,-0.82,-0.82,0.0,5.0,28.0
56.0,69.0,62.67,0.99,0.05,0.07,0.06,0.22,0.23,0.22,-0.97,-0.96,-0.97,0.0,5.0,25.0
52.0,55.0,53.8,1.0,0.74,0.75,0.74,0.13,0.14,0.13,-0.66,-0.65,-0.65,0.0,5.0,30.0
65.0,69.0,66.6,0.99,-0.48,-0.47,-0.47,-0.12,-0.09,-0.11,-0.87,-0.86,-0.87,0.0,5.0,27.0
66.0,68.0,67.5,1.0,-0.66,-0.65,-0.65,0.23,0.24,0.23,-0.73,-0.72,-0.72,0.0,5.0,22.0
56.0,58.0,56.8,1.0,0.06,0.07,0.06,0.62,0.63,0.63,-0.77,-0.77,-0.77,0.0,5.0,10.0
65.0,72.0,69.67,1.0,-0.06,-0.05,-0.05,-0.67,-0.66,-0.67,-0.75,-0.74,-0.75,0.0,5.0,2.0
47.0,51.0,49.33,1.0,-0.17,-0.17,-0.17,0.06,0.07,0.07,-0.99,-0.98,-0.99,0.0,5.0,3.0
47.0,48.0,47.8,1.0,-0.3,-0.28,-0.29,-0.13,-0.11,-0.12,-0.96,-0.93,-0.95,0.0,5.0,20.0
63.0,66.0,64.67,0.99,-0.12,-0.11,-0.12,0.78,0.79,0.78,-0.61,-0.6,-0.6,0.0,5.0,25.0
73.0,78.0,76.4,1.0,0.25,0.25,0.25,-0.93,-0.93,-0.93,0.26,0.26,0.26,0.0,5.0,14.0
68.0,68.0,68.0,0.99,-0.37,-0.36,-0.36,0.4,0.41,0.4,-0.83,-0.83,-0.83,0.0,5.0,30.0
78.0,82.0,80.17,1.0,0.49,0.51,0.5,-0.16,-0.15,-0.16,-0.86,-0.85,-0.85,0.0,5.0,12.0
55.0,72.0,60.83,1.01,0.4,0.41,0.4,-0.24,-0.23,-0.23,0.89,0.9,0.89,0.0,5.0,25.0
72.0,75.0,73.0,0.99,-0.26,-0.25,-0.26,0.44,0.44,0.44,-0.86,-0.85,-0.85,0.0,5.0,26.0
58.0,61.0,59.57,0.99,-0.11,-0.1,-0.1,-0.51,-0.5,-0.5,-0.86,-0.84,-0.85,0.0,5.0,25.0
50.0,52.0,51.0,1.0,-0.42,-0.36,-0.39,-0.48,-0.45,-0.46,-0.81,-0.79,-0.8,0.0,5.0,20.0
76.0,76.0,76.0,0.99,-0.28,-0.27,-0.28,-0.06,-0.03,-0.05,-0.96,-0.94,-0.95,0.0,5.0,26.0
56.0,59.0,57.83,1.0,-0.49,-0.48,-0.48,-0.71,-0.7,-0.71,0.5,0.51,0.51,0.0,5.0,11.0
68.0,69.0,68.17,1.0,0.1,0.1,0.1,0.28,0.28,0.28,-0.95,-0.95,-0.95,0.0,5.0,14.0
67.0,77.0,73.17,1.0,0.35,0.37,0.36,0.1,0.11,0.11,-0.93,-0.92,-0.93,0.0,5.0,12.0
72.0,74.0,73.0,0.99,-0.27,-0.26,-0.26,0.39,0.41,0.4,-0.88,-0.87,-0.87,0.0,5.0,26.0
68.0,81.0,73.0,0.99,-0.37,0.31,-0.29,-0.77,0.35,0.21,-0.92,-0.56,-0.88,0.0,5.0,14.0
67.0,72.0,69.14,1.0,0.55,0.56,0.55,0.05,0.07,0.06,-0.84,-0.83,-0.83,0.0,5.0,22.0
50.0,50.0,50.0,1.0,0.32,0.33,0.33,-0.32,-0.31,-0.32,-0.9,-0.89,-0.89,0.0,5.0,3.0
75.0,77.0,76.5,0.99,-0.09,-0.08,-0.08,-0.31,-0.27,-0.29,-0.96,-0.93,-0.95,0.0,5.0,26.0
54.0,57.0,55.4,1.0,-0.2,-0.2,-0.2,-0.97,-0.96,-0.97,0.13,0.14,0.13,0.0,5.0,11.0
68.0,69.0,68.17,0.99,-0.36,-0.35,-0.36,0.39,0.4,0.4,-0.84,-0.83,-0.84,0.0,5.0,30.0
52.0,61.0,57.0,1.0,-0.57,-0.56,-0.57,-0.72,-0.71,-0.71,0.39,0.4,0.4,0.0,5.0,11.0
68.0,71.0,69.17,0.99,-0.36,-0.35,-0.36,0.39,0.4,0.4,-0.84,-0.83,-0.84,0.0,5.0,30.0
74.0,75.0,74.8,1.0,0.03,0.04,0.03,-0.81,-0.8,-0.81,0.59,0.6,0.59,0.0,5.0,2.0
60.0,61.0,60.6,1.0,-0.35,-0.34,-0.34,-0.21,-0.17,-0.19,0.91,0.95,0.92,0.0,5.0,6.0
76.0,78.0,77.0,1.0,-0.38,-0.37,-0.37,-0.16,-0.13,-0.14,-0.93,-0.91,-0.92,0.0,5.0,4.0
45.0,47.0,45.67,1.0,-0.03,0.07,0.02,0.16,0.44,0.26,-1.01,-0.91,-0.97,0.0,5.0,3.0
78.0,86.0,81.6,1.0,0.46,0.48,0.47,-0.15,-0.14,-0.15,-0.88,-0.86,-0.87,0.0,5.0,12.0
70.0,73.0,71.5,0.99,-0.41,-0.39,-0.4,0.21,0.26,0.24,-0.89,-0.86,-0.87,0.0,5.0,26.0
58.0,68.0,63.17,0.99,-0.08,-0.05,-0.06,0.34,0.4,0.37,-0.93,-0.91,-0.92,0.0,5.0,25.0
85.0,94.0,88.33,1.0,0.34,0.35,0.35,-0.51,-0.51,-0.51,0.78,0.79,0.79,0.0,5.0,2.0
67.0,73.0,69.33,0.99,-0.45,-0.44,-0.45,0.3,0.31,0.3,-0.84,-0.83,-0.83,0.0,5.0,14.0
61.0,104.0,90.2,1.0,0.64,0.67,0.65,0.18,0.22,0.21,-0.74,-0.72,-0.73,0.0,5.0,21.0
55.0,61.0,57.2,1.0,-0.25,-0.24,-0.24,0.07,0.09,0.08,-0.97,-0.96,-0.96,0.0,5.0,11.0
50.0,50.0,50.0,1.0,-0.44,-0.42,-0.43,-0.61,-0.57,-0.59,-0.69,-0.68,-0.68,0.0,5.0,20.0
79.0,85.0,81.5,1.0,-0.32,-0.3,-0.31,0.86,0.96,0.89,-0.12,0.44,0.31,0.0,5.0,4.0
58.0,65.0,61.5,0.99,-0.44,-0.43,-0.43,-0.4,-0.39,-0.39,-0.81,-0.79,-0.8,0.0,5.0,11.0
64.0,73.0,68.17,1.0,-0.04,-0.03,-0.03,-0.02,-0.01,-0.01,0.99,1.0,1.0,0.0,5.0,1.0
56.0,59.0,57.67,0.99,-0.32,-0.31,-0.32,0.15,0.17,0.17,-0.93,-0.92,-0.93,0.0,5.0,11.0
48.0,53.0,50.43,1.0,-0.34,-0.31,-0.32,-0.13,-0.1,-0.11,-0.95,-0.93,-0.94,0.0,5.0,20.0
74.0,77.0,75.4,1.0,0.82,0.83,0.83,0.1,0.1,0.1,-0.56,-0.55,-0.55,0.0,5.0,1.0
60.0,62.0,61.17,1.0,-0.47,-0.45,-0.46,-0.04,-0.03,-0.04,-0.9,-0.89,-0.89,0.0,5.0,22.0
59.0,60.0,59.17,1.0,-0.32,-0.31,-0.31,-0.79,-0.78,-0.79,0.52,0.53,0.52,0.0,5.0,10.0
62.0,64.0,63.17,1.0,-0.36,-0.36,-0.36,-0.13,-0.12,-0.13,0.92,0.92,0.92,0.0,5.0,6.0
77.0,78.0,77.67,1.0,-0.1,-0.09,-0.09,0.25,0.28,0.27,-0.96,-0.95,-0.95,0.0,5.0,14.0
77.0,81.0,78.67,1.0,0.55,0.56,0.55,-0.36,-0.35,-0.35,-0.76,-0.75,-0.76,0.0,5.0,2.0
70.0,71.0,70.67,0.99,-0.38,-0.37,-0.38,-0.05,-0.03,-0.04,-0.92,-0.92,-0.92,0.0,5.0,26.0
68.0,91.0,83.33,0.99,-0.88,-0.08,-0.55,-0.37,1.06,0.14,-0.86,0.4,-0.76,0.0,5.0,30.0
75.0,80.0,76.67,1.0,-0.45,-0.44,-0.44,0.21,0.23,0.21,-0.88,-0.86,-0.87,0.0,5.0,4.0
72.0,78.0,75.2,1.0,0.5,0.51,0.5,-0.63,-0.62,-0.62,-0.6,-0.59,-0.59,0.0,5.0,15.0
70.0,73.0,71.8,1.0,0.5,0.52,0.51,0.15,0.16,0.16,-0.85,-0.83,-0.84,0.0,5.0,10.0
70.0,76.0,72.17,0.99,-0.41,-0.39,-0.4,0.18,0.2,0.19,-0.89,-0.88,-0.89,0.0,5.0,26.0
76.0,82.0,78.67,1.0,-0.48,-0.47,-0.47,-0.32,-0.29,-0.31,-0.84,-0.82,-0.83,0.0,5.0,4.0
77.0,82.0,79.57,1.0,0.45,0.48,0.46,-0.14,-0.13,-0.14,-0.88,-0.87,-0.88,0.0,5.0,12.0
52.0,56.0,54.0,0.99,-0.58,-0.57,-0.58,-0.68,-0.67,-0.68,0.44,0.45,0.45,0.0,5.0,11.0
71.0,72.0,71.17,1.0,0.03,0.04,0.04,0.64,0.65,0.65,-0.77,-0.76,-0.77,0.0,5.0,1.0
59.0,75.0,70.8,0.99,-0.13,-0.1,-0.11,0.36,0.42,0.38,-0.92,-0.9,-0.91,0.0,5.0,25.0
72.0,75.0,73.0,1.0,-0.5,-0.49,-0.49,0.85,0.85,0.85,-0.2,-0.19,-0.2,0.0,5.0,21.0
63.0,65.0,63.83,1.0,0.06,0.07,0.06,0.63,0.64,0.63,-0.77,-0.76,-0.77,0.0,5.0,10.0
63.0,65.0,63.67,1.0,0.56,0.58,0.57,-0.0,0.0,-0.0,-0.83,-0.81,-0.82,0.0,5.0,27.0
66.0,68.0,66.6,1.0,-0.36,-0.35,-0.36,-0.06,-0.04,-0.05,-0.94,-0.92,-0.93,0.0,5.0,16.0
70.0,80.0,75.0,1.0,-0.81,-0.53,-0.55,-0.67,-0.34,-0.43,-0.75,-0.3,-0.7,0.0,5.0,9.0
49.0,50.0,49.4,1.0,-0.17,-0.17,-0.17,0.07,0.07,0.07,-0.99,-0.98,-0.99,0.0,5.0,3.0
56.0,65.0,58.4,1.0,0.1,0.1,0.1,0.23,0.23,0.23,-0.97,-0.97,-0.97,0.0,5.0,3.0
67.0,73.0,71.2,0.99,0.06,0.08,0.07,-0.16,-0.12,-0.14,-1.0,-0.96,-0.98,0.0,5.0,0.0
69.0,77.0,73.0,1.0,0.35,0.36,0.36,0.1,0.11,0.1,-0.93,-0.92,-0.93,0.0,5.0,12.0
66.0,68.0,67.0,1.0,0.0,0.01,0.01,-0.74,-0.73,-0.73,-0.69,-0.68,-0.69,0.0,5.0,2.0
68.0,68.0,68.0,0.99,-0.56,-0.55,-0.56,0.11,0.14,0.13,-0.82,-0.81,-0.81,0.0,5.0,27.0
64.0,66.0,64.5,0.99,-0.41,-0.4,-0.41,0.27,0.29,0.28,-0.86,-0.85,-0.86,0.0,5.0,25.0
74.0,79.0,76.5,1.0,0.17,0.18,0.17,-0.62,-0.61,-0.62,-0.77,-0.76,-0.76,0.0,5.0,1.0
62.0,65.0,63.17,1.0,-0.61,-0.6,-0.6,0.06,0.07,0.06,-0.8,-0.79,-0.79,0.0,5.0,21.0
67.0,80.0,74.17,1.0,-0.87,-0.83,-0.85,-0.47,-0.44,-0.45,-0.26,-0.24,-0.25,0.0,5.0,22.0
68.0,69.0,68.17,0.99,-0.32,-0.31,-0.31,0.26,0.27,0.27,-0.9,-0.9,-0.9,0.0,5.0,14.0
74.0,78.0,76.17,0.99,-0.42,-0.41,-0.41,-0.04,-0.01,-0.01,-0.91,-0.89,-0.9,0.0,5.0,14.0
61.0,66.0,63.67,0.99,-0.55,-0.53,-0.54,-0.38,-0.37,-0.37,-0.75,-0.74,-0.75,0.0,5.0,9.0
59.0,62.0,60.83,1.0,0.32,0.33,0.33,0.47,0.5,0.48,-0.82,-0.8,-0.81,0.0,5.0,10.0
45.0,47.0,45.67,1.0,-0.08,-0.06,-0.07,0.84,0.86,0.85,-0.53,-0.52,-0.52,0.0,5.0,5.0
51.0,56.0,53.67,1.0,0.11,0.12,0.12,-0.73,-0.72,-0.72,0.68,0.69,0.68,0.0,5.0,16.0
65.0,70.0,66.17,1.0,-0.09,-0.08,-0.08,-0.71,-0.7,-0.7,-0.72,-0.7,-0.71,0.0,5.0,2.0
64.0,66.0,65.67,1.0,-0.32,-0.31,-0.32,-0.79,-0.78,-0.79,0.52,0.53,0.52,0.0,5.0,10.0
75.0,77.0,76.0,1.0,-0.62,-0.61,-0.62,0.05,0.08,0.06,-0.79,-0.77,-0.78,0.0,5.0,21.0
70.0,76.0,72.33,1.0,0.35,0.38,0.36,0.1,0.12,0.11,-0.93,-0.92,-0.93,0.0,5.0,12.0
70.0,75.0,72.5,1.0,-0.32,-0.31,-0.31,0.87,0.89,0.87,0.35,0.38,0.37,0.0,5.0,4.0
50.0,52.0,50.8,1.0,-0.02,0.11,0.09,0.18,0.3,0.22,-1.04,-0.91,-0.97,0.0,5.0,3.0
64.0,72.0,65.67,1.0,-0.37,-0.12,-0.23,-0.63,-0.12,-0.6,0.73,0.96,0.76,0.0,5.0,25.0
47.0,50.0,48.2,1.0,-0.54,-0.53,-0.53,0.65,0.65,0.65,-0.54,-0.54,-0.54,0.0,5.0,3.0
73.0,101.0,81.2,0.99,-0.57,-0.18,-0.38,-1.11,0.3,-0.12,-0.97,-0.19,-0.86,0.0,5.0,26.0
62.0,65.0,63.17,1.01,0.22,0.22,0.22,0.75,0.76,0.76,0.63,0.64,0.64,0.0,5.0,0.0
63.0,67.0,64.8,1.0,-0.6,-0.59,-0.6,0.04,0.05,0.05,-0.8,-0.8,-0.8,0.0,5.0,21.0
56.0,60.0,58.33,1.0,-0.13,-0.11,-0.13,-0.98,-0.96,-0.98,0.14,0.17,0.16,0.0,5.0,11.0
43.0,45.0,43.83,1.0,-0.43,-0.42,-0.42,-0.51,-0.49,-0.5,-0.76,-0.74,-0.75,0.0,5.0,5.0
77.0,87.0,82.67,1.0,-0.68,-0.67,-0.68,-0.73,-0.72,-0.72,-0.11,-0.1,-0.1,0.0,5.0,1.0
45.0,59.0,50.67,1.0,-0.27,-0.26,-0.27,-0.84,-0.82,-0.83,0.47,0.49,0.48,0.0,5.0,5.0
73.0,77.0,75.6,1.0,0.42,0.43,0.42,-0.72,-0.72,-0.72,-0.55,-0.54,-0.54,0.0,5.0,1.0
57.0,59.0,58.0,1.0,-0.08,0.09,0.05,0.45,0.78,0.61,-0.9,-0.65,-0.78,0.0,5.0,10.0
72.0,74.0,73.2,1.0,-0.51,-0.45,-0.45,-0.21,0.2,0.17,-0.9,-0.84,-0.87,0.0,5.0,4.0
52.0,58.0,55.2,0.99,-0.44,-0.43,-0.43,-0.55,-0.52,-0.54,-0.72,-0.7,-0.71,0.0,5.0,25.0
58.0,63.0,61.57,1.0,-0.29,-0.27,-0.28,0.14,0.16,0.15,-0.96,-0.94,-0.95,0.0,5.0,20.0
49.0,50.0,49.6,1.0,-0.28,-0.26,-0.27,0.14,0.16,0.15,-0.96,-0.94,-0.95,0.0,5.0,20.0
59.0,66.0,61.5,1.0,0.33,0.34,0.34,-0.94,-0.93,-0.93,0.14,0.15,0.15,0.0,5.0,25.0
