Min_hr,Max_hr,Mean_hr,Men_acc_sqrt,Min_acc_x,Max_acc_x,Mean_acc_x,Min_acc_y,Max_acc_y,Mean_acc_y,Min_acc_z,Max_acc_z,Mean_acc_z,Etiquetas multiclase,Etiquetas binarias,ID
0.016309133972162413,-0.17807000915977733,-0.07668575624389184,-1.3111841749212618,0.8030701228183267,0.5469442336418485,0.7329348389510951,-1.4628528449993208,-1.692517926206281,-1.7511635280305484,1.4704510080081703,1.228156023393254,1.4057536352343554,0.0,0.0,22.0
-0.38929193698770503,-0.26664664513392555,-0.30365903853069137,0.30546815318479065,-0.9829332953331803,3.3795869451808573,1.7151470464649279,-0.8773033237437423,0.09875539699248807,-0.7389149309142237,-0.9474877501808804,0.12242835732605337,-0.4151162608762827,0.0,0.0,22.0
0.320509937192063,0.796272986555853,0.38602801665838216,0.30546815318479065,-0.21395960140683715,2.3267462913344996,1.2513246151389514,-1.8532191925030397,1.475207529555753,0.1889796164424076,-0.8854893204837252,1.1833292261202593,-0.49428451722891925,0.0,0.0,22.0
0.016309133972162413,-0.26664664513392555,-0.10883218678236545,0.30546815318479065,-0.13954279231719102,2.2515433874883315,0.8693532011057942,-2.3411771268826884,1.003819812924498,-1.5613669160712376,-0.8389904982108588,1.2430982891509188,1.168248866176446,0.0,0.0,22.0
0.016309133972162413,-0.000916737211480926,-0.060125473845283973,5.155425137502948,0.6790421076689163,3.003572425950015,1.4423103221555296,-2.6339518875104773,4.661788493983037,-0.9498000553134579,-1.257479898666656,2.5580176758254276,0.028225974698481277,0.0,0.0,22.0
0.016309133972162413,-0.3552232811080738,-0.17409918211805478,1.922120481290843,0.1085132379816294,-0.10481426635827736,-0.0037243166842792714,2.128517552034893,1.852317702860757,2.1712997857952105,0.38547848830795545,0.33162007793336157,0.3607326513795543,0.0,0.0,22.0
0.4219102049320299,0.1762365347368155,0.31296794725275995,1.922120481290843,-0.8340996771538882,-0.7315051317430138,-0.822234489612473,1.5624863481545006,1.9843062635175086,1.7284410245568185,1.361953756038149,1.3925209467275674,1.500755542857519,0.0,0.0,22.0
-0.2878916692477382,-0.5323765530563702,-0.43419302920207004,0.30546815318479065,1.8945166561331364,1.7752583297959317,1.9879837707743258,-0.42838202411446563,-0.5988984236217695,-0.5491183189549127,-0.3740022754821951,-0.430435475707547,-0.4467835634173373,0.0,0.0,22.0
-0.49069220472767194,-0.26664664513392555,-0.44685677456571077,0.30546815318479065,1.7208774349239622,2.0008670413344367,1.9879837707743258,-0.6040468804911392,-0.42919884563451766,-0.5491183189549127,-0.3585026680579063,-0.37066641267688744,-0.43094991214681005,0.0,0.0,22.0
-0.38929193698770503,-0.5323765530563702,-0.5355029921111994,1.922120481290843,0.05890203192186535,-0.05467899712749843,0.02355935574666051,2.148035869410079,1.8711732115260071,2.1923882982351337,0.46297652542939943,0.3465623436910264,0.4240672564616635,0.0,0.0,22.0
-0.08509113376780446,-0.17807000915977733,-0.1049356497473997,3.5387728093968955,-0.5860436468550677,0.9480263874880799,-0.44026307557931604,-1.3652612581233912,3.3796139047460234,1.4332018503978903,-1.6759692991224533,-0.0419365660082603,-0.39928260960575546,0.0,0.0,22.0
-0.08509113376780446,-0.000916737211480926,0.07917572515476833,3.5387728093968955,-2.07437982864799,0.5469442336418485,-0.6858161274577741,-0.6235651978663251,3.3984694134112736,0.31551069108194824,-2.202955951548272,-0.5649158675265308,-0.7001219837457741,0.0,0.0,22.0
0.6247107404119636,0.4419664426592601,0.6052082248752488,5.155425137502948,-1.1069613104825906,3.2542487721039097,1.169473597846132,-3.5708311215194026,2.399127454153013,-0.8443574931138408,-1.3814767580609661,1.8856157167305083,0.5507364666258817,0.0,0.0,22.0
0.11770940171212928,-0.17807000915977733,0.004167387231663244,1.922120481290843,0.05890203192186535,-0.10481426635827736,-0.03100798911521909,2.108999234659707,1.8146066855302565,2.1712997857952105,0.3234800586108003,0.3017355464180318,0.3765663026500816,0.0,0.0,22.0
0.016309133972162413,-0.000916737211480926,-0.057203071069058975,1.922120481290843,-0.31318201352636527,2.2014081182575524,1.305891960000831,-2.1459939531308287,1.1358083735812492,-0.40149873187544854,-1.5054736174552765,2.84192072522106,-0.2567797481710099,0.0,0.0,22.0
0.11770940171212928,-0.17807000915977733,-0.057203071069058975,1.922120481290843,0.1085132379816294,-0.0797466317428879,-0.0037243166842792714,2.128517552034893,1.8334621941955067,2.1712997857952105,0.46297652542939943,0.3166778121756967,0.4240672564616635,0.0,0.0,22.0
-0.08509113376780446,-0.44379991708222194,-0.2715126079922177,5.155425137502948,-1.1565725165423548,2.9283695221038473,1.2513246151389514,-2.751061791761593,2.13515033283951,0.8216349896401106,-2.0169606624568064,2.9166320540093844,-0.5259518197699738,0.0,0.0,22.0
0.21910966945209615,-0.08949337318562914,0.08599466496596045,1.922120481290843,0.05890203192186535,-0.12988190097366678,-0.05829166154615891,2.0114076477837775,1.8146066855302565,2.150211273355287,0.2614816289136451,0.3166778121756967,0.3607326513795543,0.0,0.0,22.0
-0.2878916692477382,-0.44379991708222194,-0.3854863162649886,1.922120481290843,0.13331884101151148,-0.0797466317428879,0.02355935574666051,2.148035869410079,1.8146066855302565,2.1923882982351337,0.43197731058082184,0.33162007793336157,0.43990090773219076,0.0,0.0,22.0
-0.49069220472767194,-0.7981064609788148,-0.6611663114888695,0.30546815318479065,1.8449054500733721,1.624852522103595,1.8788490810505665,-0.5454919283655814,-0.7874535102742716,-0.7389149309142237,-0.3275034532093287,-0.5051468044958712,-0.4151162608762827,0.0,0.0,22.0
0.016309133972162413,0.9734262585041493,0.8730951460291969,1.922120481290843,-0.2635708074666013,2.5022197336422263,1.7151470464649279,-0.44790034148965163,2.304849910826762,0.44204176572148884,-1.1179834318480568,0.12242835732605337,-0.5576191223110285,0.0,0.0,22.0
-0.08509113376780446,-0.3552232811080738,-0.2520299228173849,1.922120481290843,-0.6604604559447139,0.3965384259495118,-0.08557533397709866,-1.0334498627452302,2.0031617721827586,1.6229984623572011,-0.8854893204837252,0.3017355464180318,0.0915605797805904,0.0,0.0,22.0
1.030311811371831,0.6191197146075565,0.8195177617984076,0.30546815318479065,-2.049574225618108,3.981210175950204,0.2963960800560585,-1.8337008751278536,1.2866524429032509,-0.25387914479598456,-0.8699897130594364,2.0798651715801517,-0.11427688673626435,0.0,0.0,22.0
-0.08509113376780446,-0.44379991708222194,-0.2715126079922177,6.772077465609001,-2.297630255916929,2.2515433874883315,1.2513246151389514,-1.7556276056271098,3.719013060720527,0.1889796164424076,-1.1954814689695008,0.13737062308371817,-0.5417854710405011,0.0,0.0,22.0
-0.49069220472767194,-0.7095298250046665,-0.5773907652370894,0.30546815318479065,1.8449054500733721,1.624852522103595,1.8788490810505665,-0.5454919283655814,-0.7874535102742716,-0.7389149309142237,-0.3275034532093287,-0.5051468044958712,-0.4151162608762827,0.0,0.0,22.0
0.320509937192063,0.796272986555853,0.5321481554696266,3.5387728093968955,-1.851129401379052,3.003572425950015,0.5146654595035769,-1.65803601875118,2.5311160148097644,-0.8232689806739173,-2.807440641095534,2.0798651715801517,-0.003441327842573326,0.0,0.0,22.0
0.016309133972162413,1.5048860743490386,0.16684780844151553,0.30546815318479065,1.1007373591769112,1.5496496182574266,1.2240409427080114,-1.326224623373019,0.5135765876279924,-0.7178264184743002,-0.7924916759379924,-0.44537774146521186,-0.5101181684994466,0.0,0.0,22.0
-0.49069220472767194,-0.7981064609788148,-0.6611663114888695,0.30546815318479065,1.8449054500733721,1.624852522103595,1.8788490810505665,-0.6040468804911392,-0.7874535102742716,-0.7389149309142237,-0.3275034532093287,-0.49020453873820635,-0.4151162608762827,0.0,0.0,22.0
0.4219102049320299,0.08765989876266728,0.2993300676303771,1.922120481290843,-0.6852660589745959,2.3267462913344996,0.24182873519417888,-1.4823711623745068,3.417324922076524,1.7706180494366652,-0.21900620123930728,1.3925209467275674,0.344899000109027,0.0,0.0,22.0
-0.18649140150777133,-0.44379991708222194,-0.30365903853069137,1.922120481290843,0.1085132379816294,-0.10481426635827736,-0.0037243166842792714,2.0894809172845212,1.8146066855302565,2.150211273355287,0.3389796660350891,0.2718510149027021,0.344899000109027,0.0,0.0,22.0
0.7261110081519305,0.4419664426592601,0.6246909100500817,18.088643762351367,-2.9425759346938616,3.2041135028731307,0.1054103730394799,-2.5558786180097335,6.245651221864054,1.222316725998656,-1.9704618401839402,1.6017126673348756,-0.08260958419520975,0.0,0.0,22.0
-0.2878916692477382,-0.000916737211480926,-0.027979043306810364,1.922120481290843,0.08370763495174734,-0.029611362512108986,0.02355935574666051,2.148035869410079,1.852317702860757,2.1923882982351337,0.44747691800511064,0.3465623436910264,0.43990090773219076,0.0,0.0,22.0
0.11770940171212928,-0.26664664513392555,-0.07668575624389184,0.30546815318479065,1.2743765803860854,1.624852522103595,1.3604593048627105,-1.2481513538722753,-0.9005865622657727,-1.3715703041119265,-0.3430030606336175,-0.08676336328125488,-0.2409460969004826,0.0,0.0,22.0
0.320509937192063,0.3533898066851119,0.2847180537492521,1.922120481290843,-0.6356548529148318,-0.7064374971276243,-0.7676671447505936,1.7381512045311742,1.5506295642167536,1.7917065618765888,1.4549514005838815,1.3028673521815781,1.43742093777541,0.0,0.0,22.0
0.016309133972162413,-0.08949337318562914,-0.12539246918097333,1.922120481290843,0.05890203192186535,-0.12988190097366678,-0.03100798911521909,2.128517552034893,1.8146066855302565,2.150211273355287,0.38547848830795545,0.24196648338737234,0.344899000109027,0.0,0.0,22.0
0.016309133972162413,-0.26664664513392555,-0.10883218678236545,0.30546815318479065,-1.2806005316917648,-1.5336694394354764,-1.5588936452478475,0.020539275514811037,-0.22178825031676538,-0.1062595577165205,-0.3430030606336175,-0.47526227298054147,-0.43094991214681005,0.0,0.0,22.0
0.11770940171212928,0.796272986555853,0.491234516602478,0.30546815318479065,-1.7767125922894058,-2.009954497127876,-2.0772834214357037,-0.6040468804911392,-0.8440200362700221,-0.8021804682339938,0.4784761328536881,0.28679328066036697,0.40823360519113616,0.0,0.0,22.0
0.4219102049320299,0.4419664426592601,0.4425278036653965,0.30546815318479065,-0.6852660589745959,-0.5560316894352875,-0.713099799888714,1.6991145697808023,1.7957511768650063,1.9182376365161293,1.1759584669466836,1.3775786809699027,1.2632507737996097,0.0,0.0,22.0
-0.49069220472767194,-0.7981064609788148,-0.6611663114888695,0.30546815318479065,1.8449054500733721,1.5997848874882055,1.8788490810505665,-0.5454919283655814,-0.7874535102742716,-0.7389149309142237,-0.3275034532093287,-0.5051468044958712,-0.4151162608762827,0.0,0.0,22.0
0.4219102049320299,0.796272986555853,0.3412178407562678,-1.3111841749212618,0.7534589167585625,0.5720118682572379,0.7329348389510951,-1.501889479749693,-1.6548069088757806,-1.7511635280305484,1.423952185735304,1.3028673521815781,1.3740863326933008,0.0,0.0,22.0
-0.08509113376780446,-0.3552232811080738,-0.21306455246771983,0.30546815318479065,1.8697110531032544,1.6749877913343738,1.933416425912446,0.723198701021505,0.41929904430174153,0.6107498652408763,-0.4205010977550615,-0.5948003990418606,-0.5101181684994466,1.0,1.0,22.0
0.320509937192063,0.08765989876266728,0.2321148037772049,0.30546815318479065,-1.9255462104686978,-2.185427939435602,-2.2409854560213422,0.3328323535177862,0.061044379661987655,0.1889796164424076,0.2614816289136451,0.06265929429539382,0.1865624874037541,1.0,1.0,22.0
0.11770940171212928,0.796272986555853,0.37141600277725717,0.30546815318479065,1.4232101985653778,1.1987027336419744,1.4150266497245902,0.6256071141455753,0.3627325183059909,0.547484327921106,-0.606496386846527,-0.774107588133839,-0.7001219837457741,1.0,1.0,22.0
0.016309133972162413,2.6563823420129653,1.1507234097705608,1.922120481290843,-1.875935004408934,0.6973500413341852,-1.1496385587837508,-1.5799627492504362,2.229427876165761,0.16789110400248416,-0.8079912833622812,0.18219742035671282,-0.5734527735815558,1.0,1.0,22.0
0.016309133972162413,-0.17807000915977733,-0.09324603864249971,-1.3111841749212618,-0.3379876165562473,-0.6061669586660664,-0.5221140928721354,-0.4674186588648376,-0.749742492943771,-0.6756493935944533,2.1214345198282993,1.8557311852151785,2.086600639867029,1.0,1.0,22.0
0.11770940171212928,0.2648131707109637,0.06943438256735258,0.30546815318479065,-1.7271013862296416,-1.959819227897097,-2.022716076573824,-0.5845285631159532,-0.8251645276047719,-0.7810919557940704,0.3389796660350891,0.13737062308371817,0.26573074375639055,1.0,1.0,22.0
0.4219102049320299,-0.000916737211480926,0.215554521378597,0.30546815318479065,-1.9255462104686978,-2.185427939435602,-2.2409854560213422,0.3328323535177862,0.061044379661987655,0.210068128882331,0.2614816289136451,0.07760156005305871,0.1865624874037541,1.0,1.0,22.0
0.11770940171212928,-0.000916737211480926,0.04021035480510398,0.30546815318479065,2.092961480372193,1.8755288682574898,2.1516858053599646,1.1526016832755959,0.8529757436024961,1.0957856513591153,-0.12600855669357447,-0.295955083888563,-0.209278794359428,1.0,1.0,22.0
-0.2878916692477382,0.08765989876266728,-0.12539246918097333,0.30546815318479065,1.026320550087265,0.797620579795743,0.9784878908295533,0.19620413189148453,-0.07094418099476377,0.06244854180286698,-0.7304932462408371,-0.893645714195158,-0.8267911939099923,1.0,1.0,22.0
-0.38929193698770503,-0.17807000915977733,-0.19065946451666266,0.30546815318479065,0.18293004707127553,0.12079444518022774,0.15997771790135948,-0.2722354851129782,-0.42919884563451766,-0.422587244315372,-0.7614924610894147,-0.8637611826798283,-0.8267911939099923,1.0,1.0,22.0
-0.49069220472767194,-0.000916737211480926,-0.32703826074049064,0.30546815318479065,1.4480158015952598,1.2488380028727533,1.4695939945864696,0.6841620662711332,0.40044353563649127,0.5896613528009529,-0.5909967794222382,-0.7442230566185093,-0.6842883324752467,1.0,1.0,22.0
-0.18649140150777133,0.1762365347368155,0.16684780844151553,1.922120481290843,-2.5952974922755128,1.4744467144112583,-1.5861773176787872,-2.8486533786375228,0.17417743165348887,-0.2327906323560611,-0.3895018829064839,0.6752921903596536,-0.3517816557941737,1.0,1.0,22.0
0.016309133972162413,-0.08949337318562914,-0.007522223873236753,0.30546815318479065,1.8945166561331364,1.6749877913343738,1.933416425912446,0.723198701021505,0.41929904430174153,0.6107498652408763,-0.4205010977550615,-0.5798581332841957,-0.5101181684994466,1.0,1.0,22.0
-0.2878916692477382,-0.5323765530563702,-0.4010724644048543,0.30546815318479065,1.9193222591630184,1.7000554259497633,1.9879837707743258,-0.3503087546137219,-0.5611874062912691,-0.5280298065149892,-0.3585026680579063,-0.5200890702535361,-0.4467835634173373,1.0,1.0,22.0
-0.18649140150777133,-0.44379991708222194,-0.3367796033279071,0.30546815318479065,-1.7767125922894058,-2.0350221317432653,-2.0772834214357037,-0.6040468804911392,-0.8440200362700221,-0.8021804682339938,0.4784761328536881,0.2718510149027021,0.40823360519113616,1.0,1.0,22.0
-0.2878916692477382,-0.26664664513392555,-0.2715126079922177,0.30546815318479065,1.9193222591630184,1.7000554259497633,1.9879837707743258,-0.4088637067392798,-0.6554649496175201,-0.5912953438347596,-0.3430030606336175,-0.5200890702535361,-0.43094991214681005,1.0,1.0,22.0
0.21910966945209615,-0.08949337318562914,0.0986584103296012,0.30546815318479065,-0.8837108832136523,1.7000554259497633,1.8242817361886872,-1.501889479749693,0.4758655702974921,0.5263958154811825,-0.8389904982108588,1.0637911000589404,-0.49428451722891925,1.0,1.0,22.0
0.21910966945209615,-0.08949337318562914,0.1015808131058262,0.30546815318479065,1.8697110531032544,1.6749877913343738,1.933416425912446,0.7036803836463191,0.43815455296699174,0.6318383776807996,-0.4205010977550615,-0.5948003990418606,-0.5101181684994466,1.0,1.0,22.0
0.320509937192063,-0.08949337318562914,0.11814109550443407,0.30546815318479065,-1.9255462104686978,-2.185427939435602,-2.2682691284522822,0.3328323535177862,0.061044379661987655,0.210068128882331,0.2614816289136451,0.07760156005305871,0.1865624874037541,1.0,1.0,22.0
0.11770940171212928,-0.08949337318562914,0.06943438256735258,0.30546815318479065,1.8697110531032544,1.6749877913343738,1.933416425912446,0.723198701021505,0.41929904430174153,0.6318383776807996,-0.4205010977550615,-0.5948003990418606,-0.5101181684994466,1.0,1.0,22.0
0.11770940171212928,0.5305430786334083,0.3519333176024257,-1.3111841749212618,-0.3875988226160115,-0.6312345932814558,-0.5493977653030752,-0.38934538936409385,-0.6366094409522699,-0.5702068313948361,2.152433734676877,1.8856157167305083,2.102434291137556,1.0,1.0,22.0
-0.18649140150777133,-0.3552232811080738,-0.23936617745374414,0.30546815318479065,-0.9829332953331803,-1.232857824050803,-1.2314895760765698,0.3328323535177862,0.061044379661987655,0.210068128882331,-0.4979991348765053,-0.6695117278301849,-0.5892864248520829,1.0,1.0,22.0
0.4219102049320299,-0.000916737211480926,0.215554521378597,0.30546815318479065,-1.9255462104686978,-2.185427939435602,-2.2409854560213422,0.3328323535177862,0.061044379661987655,0.1889796164424076,0.2769812363379339,0.07760156005305871,0.1865624874037541,1.0,1.0,22.0
0.11770940171212928,-0.000916737211480926,0.15028752604290768,0.30546815318479065,-0.8837108832136523,0.2210649836417856,-0.6585324550268343,-0.11608894611149059,1.5506295642167536,0.44204176572148884,-1.102483824423768,-0.1764169578272441,-0.6842883324752467,1.0,1.0,22.0
-0.2878916692477382,-0.5323765530563702,-0.38840871904121355,0.30546815318479065,-1.7767125922894058,-2.0350221317432653,-2.0772834214357037,-0.6040468804911392,-0.8440200362700221,-0.8021804682339938,0.4784761328536881,0.2718510149027021,0.40823360519113616,1.0,1.0,22.0
-0.18649140150777133,-0.3552232811080738,-0.25495232559360986,0.30546815318479065,-1.230989325632001,-1.458466535589308,-1.4770426279550282,0.6841620662711332,0.40044353563649127,0.5896613528009529,-0.3740022754821951,-0.49020453873820635,-0.43094991214681005,1.0,1.0,22.0
-0.2878916692477382,-0.3552232811080738,-0.3523657514677728,0.30546815318479065,-0.9829332953331803,-1.232857824050803,-1.2314895760765698,0.3328323535177862,0.061044379661987655,0.210068128882331,-0.4979991348765053,-0.6695117278301849,-0.5892864248520829,1.0,1.0,22.0
-0.49069220472767194,0.08765989876266728,-0.43419302920207004,0.30546815318479065,0.2573468561609216,0.020523906718669934,0.15997771790135948,-0.2722354851129782,-0.5423318976260189,-0.44367575675529547,-0.7149936388165483,-0.8637611826798283,-0.8109575426394651,1.0,1.0,22.0
-0.49069220472767194,1.3277328024007422,0.3519333176024257,0.30546815318479065,1.026320550087265,0.797620579795743,0.9784878908295533,0.17668581451629856,-0.08979968966001396,0.06244854180286698,-0.7304932462408371,-0.893645714195158,-0.8267911939099923,1.0,1.0,22.0
0.7261110081519305,0.7076963505817048,0.7415870210990775,5.155425137502948,-2.123991034707754,2.5022197336422263,-0.27656104099367723,-1.0334498627452302,6.77360546449106,0.7372809398804168,-3.551421797461396,0.45115820399468054,-0.7476229375573559,1.0,1.0,22.0
0.11770940171212928,1.4163094383748904,1.1117580394208963,0.30546815318479065,1.4232101985653778,1.2237703682573637,1.4150266497245902,0.5670521620200174,0.3815880269712411,0.547484327921106,-0.6219959942708158,-0.7591653223761741,-0.7001219837457741,1.0,1.0,22.0
-0.6934927402076057,-0.6209531890305183,-0.6777265938874774,1.922120481290843,-0.43721002867577546,1.8755288682574898,1.7697143913268074,-1.697072653501552,-0.278354776312516,-0.422587244315372,-0.6994940313922595,0.12242835732605337,-0.46261721468786465,1.0,1.0,22.0
0.11770940171212928,-0.000916737211480926,0.1015808131058262,0.30546815318479065,2.1177670834020748,1.9005965028728788,2.1789694777909046,1.1330833659004098,0.8529757436024961,1.0957856513591153,-0.12600855669357447,-0.2810128181308983,-0.17761149181837357,1.0,1.0,22.0
-0.18649140150777133,-0.44379991708222194,-0.3367796033279071,0.30546815318479065,-1.330211737751529,-1.5587370740508657,-1.5861773176787872,0.020539275514811037,-0.2406437589820156,-0.12734807015644392,-0.3275034532093287,-0.49020453873820635,-0.4151162608762827,1.0,1.0,22.0
0.016309133972162413,0.796272986555853,0.3782349425884493,0.30546815318479065,-2.2232134468272826,1.349108541334311,0.8420695286748544,-1.775145923002296,0.6832761656152443,-1.1817736921526156,-0.6374956016951046,0.18219742035671282,-0.3517816557941737,1.0,1.0,22.0
0.11770940171212928,-0.17807000915977733,-0.04453932570541823,0.30546815318479065,0.3069580622206857,0.07065917594944883,0.2145450627632391,-0.2136805329874203,-0.466909862965018,-0.3593217069956017,-0.7304932462408371,-0.893645714195158,-0.8267911939099923,1.0,1.0,22.0
-0.18649140150777133,-0.26664664513392555,-0.23936617745374414,-1.3111841749212618,-0.36279321958612937,-0.6312345932814558,-0.5493977653030752,-0.4088637067392798,-0.6743204582827703,-0.5912953438347596,2.152433734676877,1.8856157167305083,2.102434291137556,1.0,1.0,22.0
-0.2878916692477382,-0.6209531890305183,-0.46633945974054364,0.30546815318479065,1.9193222591630184,1.7000554259497633,1.9879837707743258,-0.3503087546137219,-0.5988984236217695,-0.5280298065149892,-0.3585026680579063,-0.535031336011201,-0.4467835634173373,1.0,1.0,22.0
0.21910966945209615,-0.17807000915977733,0.02072766963027111,-1.3111841749212618,-0.3379876165562473,-0.5309640548198982,-0.4948304204411955,-0.5259736109903954,-0.7120314756132706,-0.7178264184743002,2.1214345198282993,1.8856157167305083,2.086600639867029,1.0,1.0,22.0
0.21910966945209615,0.4419664426592601,0.19899423897998914,0.30546815318479065,0.9022925349378548,0.6722824067187959,0.8420695286748544,-0.9358582758693003,-1.1645636835792754,-1.160685179712692,-0.4205010977550615,-0.5948003990418606,-0.5101181684994466,1.0,1.0,22.0
-0.2878916692477382,-0.6209531890305183,-0.46633945974054364,0.30546815318479065,1.8449054500733721,1.8253935990267107,1.9879837707743258,-0.5845285631159532,-0.278354776312516,-0.5491183189549127,-0.4050014903307727,-0.44537774146521186,-0.4467835634173373,1.0,1.0,22.0
0.11770940171212928,-0.000916737211480926,0.06943438256735258,0.30546815318479065,1.4232101985653778,1.1987027336419744,1.4423103221555296,0.6451254315207613,0.3815880269712411,0.547484327921106,-0.606496386846527,-0.7591653223761741,-0.7001219837457741,1.0,1.0,22.0
-0.2878916692477382,-0.3552232811080738,-0.3202193209292992,0.30546815318479065,-1.7767125922894058,-2.0350221317432653,-2.0772834214357037,-0.6040468804911392,-0.8440200362700221,-0.8021804682339938,0.4784761328536881,0.2718510149027021,0.40823360519113616,1.0,1.0,22.0
-0.08509113376780446,-0.26664664513392555,-0.13513381176838907,0.30546815318479065,-0.7348772650343599,-0.9571138432815188,-0.9313691793362323,-0.07705231136111872,-0.3537768109735168,-0.2327906323560611,-0.5754971719979494,-0.7442230566185093,-0.6842883324752467,1.0,1.0,22.0
-0.08509113376780446,-0.08949337318562914,-0.060125473845283973,0.30546815318479065,-1.0573501044228264,-1.2579254586661923,-1.2587732485075096,0.17668581451629856,0.09875539699248807,0.23115664132225447,-0.4979991348765053,-0.6396271963148552,-0.5892864248520829,1.0,1.0,22.0
0.320509937192063,-0.000916737211480926,0.1834080908401234,0.30546815318479065,-1.9255462104686978,-2.185427939435602,-2.2682691284522822,0.35235067089297206,0.061044379661987655,0.210068128882331,0.2769812363379339,0.07760156005305871,0.20239613867428144,1.0,1.0,22.0
0.21910966945209615,-0.08949337318562914,0.07917572515476833,0.30546815318479065,0.3069580622206857,0.07065917594944883,0.2145450627632391,-0.2136805329874203,-0.466909862965018,-0.38041021943552517,-0.7304932462408371,-0.893645714195158,-0.8267911939099923,1.0,1.0,22.0
-0.2878916692477382,-0.44379991708222194,-0.3689260338663807,0.30546815318479065,-1.3054061347216468,-1.5587370740508657,-1.5861773176787872,0.04005759288999697,-0.2406437589820156,-0.12734807015644392,-0.3275034532093287,-0.49020453873820635,-0.4151162608762827,1.0,1.0,22.0
-0.18649140150777133,-0.5323765530563702,-0.3689260338663807,0.30546815318479065,-0.9829332953331803,-1.2077901894354135,-1.2314895760765698,0.3328323535177862,0.061044379661987655,0.210068128882331,-0.5134987423007942,-0.6695117278301849,-0.6051200761226102,1.0,1.0,22.0
0.4219102049320299,0.08765989876266728,0.2321148037772049,0.30546815318479065,1.1751541682665572,0.9981616567188588,1.169473597846132,0.5084972098944597,0.3438770096407407,0.42095325328156535,-0.6839944239679707,-0.8189343854068336,-0.7792902400984103,1.0,1.0,22.0
0.320509937192063,-0.08949337318562914,0.11814109550443407,0.30546815318479065,-1.9255462104686978,-2.185427939435602,-2.2682691284522822,0.35235067089297206,0.061044379661987655,0.210068128882331,0.2769812363379339,0.07760156005305871,0.1865624874037541,1.0,1.0,22.0
0.016309133972162413,-0.26664664513392555,-0.11565112659355757,1.922120481290843,0.23254125313103963,2.2766110221037206,1.4150266497245902,-1.0139315453700442,2.3802719454877628,0.31551069108194824,-0.9319881427565916,1.452290009758227,-0.49428451722891925,1.0,1.0,22.0
-0.8962932756875394,-1.0638363689012593,-0.9923719594610234,0.30546815318479065,1.7456830379538442,1.5747172528728162,1.7969980637577474,-0.11608894611149059,-0.3537768109735168,-0.27496765723590794,-0.4824995274522165,-0.6545694620725201,-0.5892864248520829,1.0,1.0,22.0
-0.7948930079475726,-0.6209531890305183,-0.8394328808385876,0.30546815318479065,-0.7348772650343599,-0.9821814778969082,-0.958652851767172,0.17668581451629856,-0.10865519832526416,0.04136002936294355,-0.5909967794222382,-0.7591653223761741,-0.7001219837457741,1.0,1.0,22.0
0.11770940171212928,-0.08949337318562914,0.05287410016874472,0.30546815318479065,-1.9255462104686978,-2.185427939435602,-2.2409854560213422,0.31331403614260017,0.04218887099673745,0.1889796164424076,0.2614816289136451,0.06265929429539382,0.1865624874037541,1.0,1.0,22.0
0.21910966945209615,0.4419664426592601,0.2964076648541521,0.30546815318479065,1.026320550087265,0.797620579795743,0.9784878908295533,0.15716749714111264,-0.07094418099476377,0.06244854180286698,-0.7304932462408371,-0.8787034484374932,-0.8267911939099923,1.0,1.0,22.0
-0.18649140150777133,-0.26664664513392555,-0.2062456126565284,0.30546815318479065,1.026320550087265,0.797620579795743,0.9784878908295533,0.19620413189148453,-0.07094418099476377,0.06244854180286698,-0.7304932462408371,-0.8787034484374932,-0.8267911939099923,1.0,1.0,22.0
0.11770940171212928,-0.17807000915977733,-0.027979043306810364,0.30546815318479065,-1.7271013862296416,-1.959819227897097,-2.022716076573824,-0.5845285631159532,-0.8251645276047719,-0.7810919557940704,0.3389796660350891,0.13737062308371817,0.26573074375639055,1.0,1.0,22.0
0.320509937192063,-0.08949337318562914,0.11814109550443407,0.30546815318479065,-1.9255462104686978,-2.185427939435602,-2.2682691284522822,0.35235067089297206,0.061044379661987655,0.210068128882331,0.2769812363379339,0.07760156005305871,0.1865624874037541,1.0,1.0,22.0
-0.38929193698770503,0.7076963505817048,0.11814109550443407,0.30546815318479065,1.001514947057383,0.797620579795743,0.9784878908295533,0.19620413189148453,-0.07094418099476377,0.06244854180286698,-0.7304932462408371,-0.8787034484374932,-0.8267911939099923,1.0,1.0,22.0
0.320509937192063,0.1762365347368155,0.19899423897998914,6.772077465609001,-2.6201030953053954,2.602490272103784,-1.9954324041428841,-2.2631038573819446,1.2866524429032509,0.02027151692302011,-1.613970869425298,2.4534218155217733,0.1390615335921723,1.0,1.0,22.0
-0.18649140150777133,-0.26664664513392555,-0.25495232559360986,-1.3111841749212618,-0.31318201352636527,-0.5560316894352875,-0.4948304204411955,-0.5259736109903954,-0.8063090189395218,-0.7389149309142237,2.1214345198282993,1.8557311852151785,2.0707669885965014,1.0,1.0,22.0
0.320509937192063,0.1762365347368155,0.2642612343156785,0.30546815318479065,-1.9255462104686978,-2.185427939435602,-2.2682691284522822,0.31331403614260017,0.061044379661987655,0.210068128882331,0.2614816289136451,0.07760156005305871,0.1865624874037541,1.0,1.0,22.0
-0.49069220472767194,-0.44379991708222194,-0.4497791773419358,0.30546815318479065,-0.759682868064242,-0.9821814778969082,-0.958652851767172,0.17668581451629856,-0.08979968966001396,0.04136002936294355,-0.5909967794222382,-0.7591653223761741,-0.6842883324752467,1.0,1.0,22.0
-0.18649140150777133,-0.3552232811080738,-0.2909952931670506,-1.3111841749212618,-0.36279321958612937,-0.6061669586660664,-0.5221140928721354,-0.4674186588648376,-0.749742492943771,-0.6756493935944533,2.1369341272525886,1.8557311852151785,2.086600639867029,1.0,1.0,22.0
0.5233104726719967,0.4419664426592601,0.491234516602478,0.30546815318479065,-1.7271013862296416,-1.9096839586663181,-2.022716076573824,-0.5845285631159532,-0.7874535102742716,-0.7810919557940704,0.3389796660350891,0.18219742035671282,0.24989709248586334,1.0,1.0,22.0
-0.38929193698770503,-0.3552232811080738,-0.43419302920207004,0.30546815318479065,-1.0077388983630624,-1.232857824050803,-1.2314895760765698,0.3328323535177862,0.061044379661987655,0.210068128882331,-0.4979991348765053,-0.6695117278301849,-0.5892864248520829,1.0,1.0,22.0
-0.18649140150777133,0.4419664426592601,-0.037720385894226105,0.30546815318479065,-1.3054061347216468,-1.4333989009739185,-1.4770426279550282,0.5865704793952033,0.6644206569499941,0.5896613528009529,-0.4515003126036391,-0.46032000722287675,-0.43094991214681005,1.0,1.0,22.0
-0.38929193698770503,-0.7095298250046665,-0.5637528856147066,0.30546815318479065,1.9193222591630184,1.7000554259497633,1.9879837707743258,-0.38934538936409385,-0.6366094409522699,-0.5702068313948361,-0.3430030606336175,-0.5200890702535361,-0.4467835634173373,1.0,1.0,22.0
-0.38929193698770503,-0.7095298250046665,-0.5637528856147066,0.30546815318479065,-0.3379876165562473,2.0259346759498262,1.8788490810505665,-1.716590970876738,2.8705151707842678,-0.3593217069956017,-1.3349779357881,0.7798880506633077,-0.4151162608762827,1.0,1.0,22.0
0.21910966945209615,0.5305430786334083,0.2964076648541521,0.30546815318479065,1.4480158015952598,1.2488380028727533,1.4695939945864696,0.6841620662711332,0.43815455296699174,0.6107498652408763,-0.5754971719979494,-0.7442230566185093,-0.6842883324752467,1.0,1.0,22.0
-0.08509113376780446,-0.3552232811080738,-0.2325472376425527,0.30546815318479065,-1.3054061347216468,-1.5587370740508657,-1.5588936452478475,0.04005759288999697,-0.22178825031676538,-0.1062595577165205,-0.3275034532093287,-0.5051468044958712,-0.43094991214681005,1.0,1.0,22.0
0.320509937192063,-0.08949337318562914,0.11814109550443407,0.30546815318479065,-1.9255462104686978,-2.185427939435602,-2.2682691284522822,0.3328323535177862,0.061044379661987655,0.210068128882331,0.2614816289136451,0.07760156005305871,0.1865624874037541,1.0,1.0,22.0
0.11770940171212928,-0.17807000915977733,0.004167387231663244,0.30546815318479065,2.1177670834020748,1.8755288682574898,2.1789694777909046,1.172120000650782,0.8529757436024961,1.0957856513591153,-0.09500934184499688,-0.2810128181308983,-0.17761149181837357,1.0,1.0,22.0
0.320509937192063,-0.000916737211480926,0.19899423897998914,0.30546815318479065,0.7286533137286805,2.2515433874883315,1.0876225805533126,-1.9117741446285976,0.8529757436024961,-0.21170211991613763,-0.8079912833622812,0.5258695327830049,-0.6051200761226102,1.0,1.0,22.0
0.016309133972162413,-0.08949337318562914,-0.06304787662150897,0.30546815318479065,-0.710071662004478,-0.9571138432815188,-0.9313691793362323,-0.07705231136111872,-0.3349213023082666,-0.2327906323560611,-0.5754971719979494,-0.7442230566185093,-0.6842883324752467,1.0,1.0,22.0
0.016309133972162413,-0.000916737211480926,0.04021035480510398,0.30546815318479065,-0.11473718928730896,-0.3304229778967825,-0.2492773685627374,0.8988635573981786,0.5889986222889934,0.8216349896401106,-0.6529952091193933,-0.8189343854068336,-0.7476229375573559,1.0,1.0,22.0
-0.18649140150777133,-0.3552232811080738,-0.2715126079922177,0.30546815318479065,1.1751541682665572,0.9480263874880799,1.1421899254151922,-1.052968180120416,-1.2776967355707767,-1.2872162543522327,-0.2810046309364623,-0.44537774146521186,-0.367615307064701,1.0,1.0,22.0
0.11770940171212928,-0.000916737211480926,-0.027979043306810364,0.30546815318479065,-1.9255462104686978,-2.185427939435602,-2.2409854560213422,0.31331403614260017,0.04218887099673745,0.1889796164424076,0.2614816289136451,0.06265929429539382,0.1865624874037541,1.0,1.0,22.0
-0.38929193698770503,-0.6209531890305183,-0.5247875152650415,0.30546815318479065,1.9193222591630184,1.7000554259497633,1.9879837707743258,-0.4088637067392798,-0.6366094409522699,-0.5702068313948361,-0.3430030606336175,-0.5200890702535361,-0.43094991214681005,1.0,1.0,22.0
-0.2878916692477382,-0.44379991708222194,-0.3854863162649886,0.30546815318479065,-0.9829332953331803,-1.232857824050803,-1.2314895760765698,0.3328323535177862,0.04218887099673745,0.210068128882331,-0.4979991348765053,-0.6695117278301849,-0.6051200761226102,1.0,1.0,22.0
0.11770940171212928,-0.17807000915977733,-0.060125473845283973,0.30546815318479065,1.4232101985653778,1.2237703682573637,1.4423103221555296,0.6451254315207613,0.3627325183059909,0.5685728403610294,-0.5909967794222382,-0.7591653223761741,-0.7001219837457741,1.0,1.0,22.0
-0.49069220472767194,-0.44379991708222194,-0.4380895662370365,0.30546815318479065,1.001514947057383,0.797620579795743,0.9784878908295533,0.11813086239074073,-0.07094418099476377,0.06244854180286698,-0.7304932462408371,-0.8637611826798283,-0.8267911939099923,1.0,1.0,22.0
0.320509937192063,-0.000916737211480926,0.19899423897998914,0.30546815318479065,-1.9255462104686978,-2.185427939435602,-2.2682691284522822,0.35235067089297206,0.07989988832723788,0.23115664132225447,0.2769812363379339,0.07760156005305871,0.20239613867428144,1.0,1.0,22.0
1.131712079111798,1.0620028944782975,1.0270083589103742,-1.3111841749212618,-0.36279321958612937,1.7000554259497633,0.8420695286748544,-0.8187483716181847,1.022675321589748,0.04136002936294355,-1.024985787302324,0.39138914096402105,-0.7792902400984103,1.0,1.0,22.0
-0.08509113376780446,0.3533898066851119,0.05287410016874472,0.30546815318479065,-0.11473718928730896,-0.3304229778967825,-0.2492773685627374,0.8988635573981786,0.5889986222889934,0.8216349896401106,-0.6529952091193933,-0.8189343854068336,-0.7476229375573559,1.0,1.0,22.0
0.11770940171212928,-0.26664664513392555,-0.07668575624389184,-1.3111841749212618,-0.31318201352636527,-0.5560316894352875,-0.4675467480102557,-0.5259736109903954,-0.8063090189395218,-0.7389149309142237,2.1214345198282993,1.8407889194575138,2.0707669885965014,2.0,1.0,22.0
0.016309133972162413,-0.17807000915977733,-0.04453932570541823,0.30546815318479065,-0.6604604559447139,-0.8819109394353504,-0.8495181620434129,0.6060887967703894,0.3061659923102403,0.48421879060133566,-0.5909967794222382,-0.7591653223761741,-0.7001219837457741,2.0,1.0,22.0
-0.49069220472767194,-0.6209531890305183,-0.5471926032160987,0.30546815318479065,-0.759682868064242,-0.9821814778969082,-0.958652851767172,0.1376491797659267,-0.10865519832526416,0.04136002936294355,-0.5909967794222382,-0.6993962593455146,-0.7001219837457741,2.0,1.0,22.0
0.11770940171212928,-0.17807000915977733,-0.011418760908202496,-1.3111841749212618,-0.2883764104964832,-0.5560316894352875,-0.4675467480102557,-0.5845285631159532,-0.8440200362700221,-0.7810919557940704,2.105934912404011,1.8407889194575138,2.0549333373259744,2.0,1.0,22.0
0.21910966945209615,0.08765989876266728,0.16002886863032478,0.30546815318479065,2.0433502743124285,1.9256641374882684,2.1516858053599646,0.9964551442741082,0.9849643042592477,1.032520114039345,-0.21900620123930728,-0.3108973496462279,-0.2409460969004826,2.0,1.0,22.0
0.11770940171212928,-0.08949337318562914,-0.027979043306810364,0.30546815318479065,-1.7767125922894058,-2.009954497127876,-2.0772834214357037,-0.6040468804911392,-0.8251645276047719,-0.8021804682339938,0.46297652542939943,0.2569087491450372,0.3923999539206089,2.0,1.0,22.0
0.11770940171212928,-0.17807000915977733,-0.060125473845283973,0.30546815318479065,2.0681558773423108,1.8755288682574898,2.1516858053599646,1.0159734616492941,0.7775537089414953,1.0114316015994216,-0.20350659381501848,-0.3258396154038928,-0.2409460969004826,2.0,1.0,22.0
-0.49069220472767194,0.08765989876266728,-0.46633945974054364,0.30546815318479065,-0.6604604559447139,-0.8819109394353504,-0.8495181620434129,0.6646437488959472,0.3815880269712411,0.5685728403610294,-0.5909967794222382,-0.7442230566185093,-0.6842883324752467,2.0,1.0,22.0
0.016309133972162413,-0.26664664513392555,-0.0961684414187247,0.30546815318479065,2.092961480372193,1.8755288682574898,2.1516858053599646,1.1526016832755959,0.8341202349372459,1.0957856513591153,-0.11050894926928567,-0.295955083888563,-0.209278794359428,2.0,1.0,22.0
-0.08509113376780446,-0.26664664513392555,-0.2062456126565284,0.30546815318479065,-0.6604604559447139,-0.8819109394353504,-0.8495181620434129,0.6451254315207613,0.3438770096407407,0.547484327921106,-0.5909967794222382,-0.7442230566185093,-0.6842883324752467,2.0,1.0,22.0
0.016309133972162413,-0.26664664513392555,-0.10883218678236545,0.30546815318479065,-1.2061837226021188,-1.458466535589308,-1.4770426279550282,0.5084972098944597,0.2118884489839893,0.399864740841642,-0.3740022754821951,-0.5499736017688659,-0.46261721468786465,2.0,1.0,22.0
0.016309133972162413,-0.26664664513392555,-0.14195275157958118,0.30546815318479065,-1.230989325632001,-1.458466535589308,-1.4770426279550282,0.5280155272696456,0.23074395764923947,0.399864740841642,-0.3895018829064839,-0.5499736017688659,-0.478450865958392,2.0,1.0,22.0
-0.08509113376780446,-0.17807000915977733,-0.09324603864249971,0.30546815318479065,-1.255794928661883,-1.458466535589308,-1.4770426279550282,0.6841620662711332,0.3815880269712411,0.5896613528009529,-0.3430030606336175,-0.5051468044958712,-0.43094991214681005,2.0,1.0,22.0
0.11770940171212928,-0.17807000915977733,-0.011418760908202496,0.30546815318479065,2.092961480372193,1.8755288682574898,2.1516858053599646,1.094046731150038,0.7775537089414953,1.0114316015994216,-0.15700777154215206,-0.34078188116155766,-0.2409460969004826,2.0,1.0,22.0
0.016309133972162413,-0.26664664513392555,-0.12539246918097333,0.30546815318479065,-0.6604604559447139,-0.8819109394353504,-0.8495181620434129,0.6451254315207613,0.3438770096407407,0.547484327921106,-0.5909967794222382,-0.7591653223761741,-0.6842883324752467,2.0,1.0,22.0
-0.18649140150777133,-0.44379991708222194,-0.3406761403628735,0.30546815318479065,1.671266228864198,1.4493790797958688,1.7151470464649279,-0.25271716773779224,-0.5234763889607686,-0.44367575675529547,-0.4824995274522165,-0.6695117278301849,-0.5892864248520829,2.0,1.0,22.0
-0.18649140150777133,-0.5323765530563702,-0.3689260338663807,0.30546815318479065,1.7208774349239622,1.4995143490266478,1.7424307188958676,-0.15512558086186246,-0.4103433369692674,-0.33823319455567824,-0.4979991348765053,-0.6695117278301849,-0.6051200761226102,2.0,1.0,22.0
-0.2878916692477382,-0.5323765530563702,-0.38840871904121355,0.30546815318479065,1.7208774349239622,1.4995143490266478,1.7424307188958676,-0.15512558086186246,-0.4103433369692674,-0.31714468211575486,-0.4979991348765053,-0.6695117278301849,-0.6051200761226102,2.0,1.0,22.0
-0.2878916692477382,-0.17807000915977733,-0.2715126079922177,0.30546815318479065,-0.759682868064242,-0.9821814778969082,-0.958652851767172,0.19620413189148453,-0.08979968966001396,0.04136002936294355,-0.5909967794222382,-0.7591653223761741,-0.7001219837457741,2.0,1.0,22.0
0.11770940171212928,-0.17807000915977733,-0.037720385894226105,-1.3111841749212618,-0.31318201352636527,-0.5560316894352875,-0.4675467480102557,-0.5454919283655814,-0.8063090189395218,-0.7389149309142237,2.1214345198282993,1.8407889194575138,2.0707669885965014,2.0,1.0,22.0
0.016309133972162413,-0.08949337318562914,-0.07668575624389184,0.30546815318479065,1.4232101985653778,1.1987027336419744,1.4150266497245902,0.6451254315207613,0.3627325183059909,0.547484327921106,-0.606496386846527,-0.7591653223761741,-0.7001219837457741,2.0,1.0,22.0
-0.08509113376780446,-0.3552232811080738,-0.19065946451666266,0.30546815318479065,1.026320550087265,0.797620579795743,0.9784878908295533,0.21572244926667047,-0.07094418099476377,0.08353705424279041,-0.7304932462408371,-0.8787034484374932,-0.8267911939099923,2.0,1.0,22.0
0.11770940171212928,-0.17807000915977733,0.004167387231663244,-1.3111841749212618,-0.2883764104964832,-0.5560316894352875,-0.4675467480102557,-0.5845285631159532,-0.8440200362700221,-0.7810919557940704,2.105934912404011,1.8258466536998488,2.0549333373259744,2.0,1.0,22.0
0.11770940171212928,-0.17807000915977733,-0.037720385894226105,-1.3111841749212618,-0.3379876165562473,-0.6061669586660664,-0.5221140928721354,-0.4869369762400235,-0.749742492943771,-0.6967379060343767,2.1214345198282993,1.8557311852151785,2.086600639867029,2.0,1.0,22.0
-0.38929193698770503,-0.08949337318562914,-0.3494433486915478,0.30546815318479065,-0.7348772650343599,-0.9821814778969082,-0.958652851767172,0.17668581451629856,-0.08979968966001396,0.04136002936294355,-0.5909967794222382,-0.7591653223761741,-0.7001219837457741,2.0,1.0,22.0
0.016309133972162413,-0.3552232811080738,-0.17409918211805478,0.30546815318479065,-0.6604604559447139,-0.8819109394353504,-0.8495181620434129,0.6060887967703894,0.3061659923102403,0.5053073030412591,-0.606496386846527,-0.7591653223761741,-0.7001219837457741,2.0,1.0,22.0
0.016309133972162413,-0.08949337318562914,-0.04453932570541823,-1.3111841749212618,-0.3379876165562473,-0.581099324050677,-0.4948304204411955,-0.5064552936152095,-0.7685980016090214,-0.6967379060343767,2.1214345198282993,1.8557311852151785,2.086600639867029,2.0,1.0,22.0
0.11770940171212928,-0.17807000915977733,-0.04453932570541823,-1.3111841749212618,-0.31318201352636527,-0.5560316894352875,-0.4948304204411955,-0.5650102457407673,-0.8251645276047719,-0.7600034433541469,2.105934912404011,1.8407889194575138,2.0549333373259744,2.0,1.0,22.0
0.11770940171212928,-0.17807000915977733,0.001244984455438245,-1.3111841749212618,-0.36279321958612937,-0.6061669586660664,-0.5221140928721354,-0.4869369762400235,-0.749742492943771,-0.6967379060343767,2.1214345198282993,1.8557311852151785,2.086600639867029,2.0,1.0,22.0
0.016309133972162413,-0.26664664513392555,-0.0961684414187247,0.30546815318479065,2.092961480372193,1.8755288682574898,2.1789694777909046,1.1330833659004098,0.8152647262719958,1.074697138919192,-0.12600855669357447,-0.3108973496462279,-0.209278794359428,2.0,1.0,22.0
0.016309133972162413,-0.3552232811080738,-0.17409918211805478,0.30546815318479065,-1.2061837226021188,-1.458466535589308,-1.4497589555240884,0.5280155272696456,0.23074395764923947,0.399864740841642,-0.3895018829064839,-0.5499736017688659,-0.478450865958392,2.0,1.0,22.0
-0.2878916692477382,-0.3552232811080738,-0.3689260338663807,0.30546815318479065,-0.7348772650343599,-0.9821814778969082,-0.9313691793362323,0.17668581451629856,-0.10865519832526416,0.04136002936294355,-0.5909967794222382,-0.7591653223761741,-0.7001219837457741,2.0,1.0,22.0
-0.38929193698770503,-0.7095298250046665,-0.5637528856147066,0.30546815318479065,-0.9829332953331803,-1.232857824050803,-1.2042059036456303,0.3328323535177862,0.04218887099673745,0.1889796164424076,-0.4979991348765053,-0.6695117278301849,-0.6051200761226102,2.0,1.0,22.0
-0.2878916692477382,-0.5323765530563702,-0.4497791773419358,0.30546815318479065,1.671266228864198,1.4493790797958688,1.7151470464649279,-0.25271716773779224,-0.5234763889607686,-0.44367575675529547,-0.4824995274522165,-0.6695117278301849,-0.5892864248520829,2.0,1.0,22.0
0.4219102049320299,0.08765989876266728,0.2438044148821049,0.30546815318479065,-1.7271013862296416,-1.959819227897097,-2.022716076573824,-0.5845285631159532,-0.8251645276047719,-0.7810919557940704,0.3234800586108003,0.13737062308371817,0.24989709248586334,2.0,1.0,22.0
0.11770940171212928,-0.08949337318562914,0.02072766963027111,0.30546815318479065,2.092961480372193,1.8755288682574898,2.1516858053599646,1.055010096399666,0.7775537089414953,1.0114316015994216,-0.17250737896644086,-0.34078188116155766,-0.2567797481710099,2.0,1.0,22.0
0.11770940171212928,-0.26664664513392555,-0.07668575624389184,0.30546815318479065,-0.6604604559447139,-0.8819109394353504,-0.8495181620434129,0.6256071141455753,0.32502150097549054,0.5053073030412591,-0.5909967794222382,-0.7591653223761741,-0.6842883324752467,2.0,1.0,22.0
0.11770940171212928,-0.26664664513392555,-0.07668575624389184,0.30546815318479065,-0.11473718928730896,-0.3554906125121719,-0.2492773685627374,0.8403086052726206,0.5701431136237431,0.7794579647602637,-0.6529952091193933,-0.8189343854068336,-0.7634565888278833,2.0,1.0,22.0
-0.08509113376780446,-0.26664664513392555,-0.13513381176838907,0.30546815318479065,-0.6604604559447139,-0.8819109394353504,-0.8495181620434129,0.6451254315207613,0.3438770096407407,0.547484327921106,-0.5909967794222382,-0.7442230566185093,-0.6842883324752467,2.0,1.0,22.0
0.11770940171212928,-0.08949337318562914,0.004167387231663244,-1.3111841749212618,-0.31318201352636527,-0.5560316894352875,-0.4948304204411955,-0.5259736109903954,-0.8063090189395218,-0.7389149309142237,2.1214345198282993,1.8557311852151785,2.0707669885965014,2.0,1.0,22.0
0.11770940171212928,-0.08949337318562914,0.05969303997993684,0.30546815318479065,1.4232101985653778,1.1987027336419744,1.4150266497245902,0.6060887967703894,0.3627325183059909,0.5263958154811825,-0.606496386846527,-0.774107588133839,-0.7159556350163013,2.0,1.0,22.0
-0.38929193698770503,-0.7095298250046665,-0.5637528856147066,0.30546815318479065,-0.759682868064242,-0.9821814778969082,-0.958652851767172,0.15716749714111264,-0.10865519832526416,0.02027151692302011,-0.6219959942708158,-0.7591653223761741,-0.6842883324752467,2.0,1.0,22.0
-0.08509113376780446,-0.26664664513392555,-0.15753889971944693,0.30546815318479065,-0.13954279231719102,-0.3554906125121719,-0.27656104099367723,0.8598269226478067,0.5512876049584929,0.7583694523203403,-0.6529952091193933,-0.8189343854068336,-0.7634565888278833,2.0,1.0,22.0
-0.08509113376780446,-0.26664664513392555,-0.17409918211805478,-1.3111841749212618,-0.31318201352636527,-0.5560316894352875,-0.4675467480102557,-0.5454919283655814,-0.8063090189395218,-0.7389149309142237,2.1214345198282993,1.8557311852151785,2.0707669885965014,2.0,1.0,22.0
-0.49069220472767194,-0.6209531890305183,-0.5501150059923238,0.30546815318479065,-0.7348772650343599,-0.9821814778969082,-0.958652851767172,0.17668581451629856,-0.10865519832526416,0.02027151692302011,-0.5909967794222382,-0.7591653223761741,-0.6842883324752467,2.0,1.0,22.0
0.016309133972162413,-0.26664664513392555,-0.11565112659355757,0.30546815318479065,-0.6604604559447139,-0.8819109394353504,-0.8495181620434129,0.6060887967703894,0.3061659923102403,0.5053073030412591,-0.5909967794222382,-0.7591653223761741,-0.7001219837457741,2.0,1.0,22.0
0.7261110081519305,0.796272986555853,0.8000350766235748,0.30546815318479065,1.1255429622067932,0.9480263874880799,1.1149062529842524,0.44994225776890184,0.19303294031873908,0.3365992035218716,-0.6994940313922595,-0.8488189169221634,-0.7951238913689377,2.0,1.0,22.0
0.21910966945209615,-0.17807000915977733,0.02072766963027111,0.30546815318479065,1.4480158015952598,1.2237703682573637,1.4423103221555296,0.6646437488959472,0.3815880269712411,0.5685728403610294,-0.5909967794222382,-0.7591653223761741,-0.7001219837457741,2.0,1.0,22.0
0.11770940171212928,-0.17807000915977733,-0.04453932570541823,0.30546815318479065,2.092961480372193,1.8755288682574898,2.1516858053599646,1.094046731150038,0.7775537089414953,1.0114316015994216,-0.15700777154215206,-0.34078188116155766,-0.2409460969004826,2.0,1.0,22.0
-0.49069220472767194,-0.7095298250046665,-0.629019880950396,0.30546815318479065,-0.7348772650343599,-0.9821814778969082,-0.958652851767172,0.17668581451629856,-0.10865519832526416,0.02027151692302011,-0.5909967794222382,-0.7591653223761741,-0.7001219837457741,2.0,1.0,22.0
0.016309133972162413,-0.17807000915977733,-0.060125473845283973,0.30546815318479065,1.4232101985653778,1.1987027336419744,1.4150266497245902,0.6451254315207613,0.3438770096407407,0.5263958154811825,-0.606496386846527,-0.774107588133839,-0.7159556350163013,2.0,1.0,22.0
-0.2878916692477382,-0.5323765530563702,-0.4010724644048543,0.30546815318479065,1.671266228864198,1.5245819836420373,1.7151470464649279,-0.36982707198890785,-0.5234763889607686,-0.4647642691952189,-0.4979991348765053,-0.6097426647995254,-0.5892864248520829,2.0,1.0,22.0
0.4219102049320299,0.1762365347368155,0.31296794725275995,0.30546815318479065,-1.7271013862296416,-1.959819227897097,-2.022716076573824,-0.5845285631159532,-0.8251645276047719,-0.7810919557940704,0.3234800586108003,0.13737062308371817,0.24989709248586334,2.0,1.0,22.0
-0.38929193698770503,-0.6209531890305183,-0.4828997421391515,0.30546815318479065,1.6960718318940802,1.4493790797958688,1.7151470464649279,-0.25271716773779224,-0.5234763889607686,-0.44367575675529547,-0.4824995274522165,-0.6695117278301849,-0.5892864248520829,2.0,1.0,22.0
0.11770940171212928,-0.08949337318562914,0.02072766963027111,0.30546815318479065,2.092961480372193,1.8755288682574898,2.1516858053599646,1.113565048525224,0.7964092176067455,1.0536086264792683,-0.14150816411786327,-0.3258396154038928,-0.2409460969004826,2.0,1.0,22.0
0.11770940171212928,-0.000916737211480926,0.05287410016874472,-1.3111841749212618,-0.31318201352636527,-0.5560316894352875,-0.4948304204411955,-0.5650102457407673,-0.8251645276047719,-0.7600034433541469,2.105934912404011,1.8407889194575138,2.0549333373259744,2.0,1.0,22.0
0.21910966945209615,-0.17807000915977733,0.02072766963027111,0.30546815318479065,2.092961480372193,1.8755288682574898,2.1789694777909046,1.113565048525224,0.7964092176067455,1.032520114039345,-0.12600855669357447,-0.3258396154038928,-0.2251124456299553,2.0,1.0,22.0
-0.2878916692477382,-0.5323765530563702,-0.3854863162649886,0.30546815318479065,1.6960718318940802,1.4995143490266478,1.7424307188958676,-0.17464389823704843,-0.4103433369692674,-0.33823319455567824,-0.4979991348765053,-0.6695117278301849,-0.6051200761226102,2.0,1.0,22.0
0.016309133972162413,-0.17807000915977733,-0.11565112659355757,0.30546815318479065,1.4232101985653778,1.1987027336419744,1.4150266497245902,0.6256071141455753,0.3627325183059909,0.547484327921106,-0.606496386846527,-0.774107588133839,-0.7001219837457741,2.0,1.0,22.0
0.5233104726719967,0.08765989876266728,0.31296794725275995,0.30546815318479065,1.1751541682665572,0.9730940221034693,1.169473597846132,0.5475338446448315,0.2684549749797399,0.44204176572148884,-0.6839944239679707,-0.8338766511644985,-0.7792902400984103,2.0,1.0,22.0
0.7261110081519305,0.9734262585041493,0.8321815071620483,0.30546815318479065,2.0681558773423108,1.9005965028728788,2.1516858053599646,1.055010096399666,0.7964092176067455,1.032520114039345,-0.15700777154215206,-0.3258396154038928,-0.2409460969004826,2.0,1.0,22.0
-0.2878916692477382,-0.44379991708222194,-0.3367796033279071,0.30546815318479065,-1.7767125922894058,-2.0350221317432653,-2.0772834214357037,-0.5845285631159532,-0.8440200362700221,-0.8021804682339938,0.4784761328536881,0.2718510149027021,0.3923999539206089,2.0,1.0,22.0
-0.2878916692477382,-0.5323765530563702,-0.40789140421604575,0.30546815318479065,1.57204381674467,1.4995143490266478,1.7424307188958676,-0.6430835152415111,-0.42919884563451766,-0.38041021943552517,-0.528998349725083,-0.5798581332841957,-0.5892864248520829,2.0,1.0,22.0
0.320509937192063,0.08765989876266728,0.20191664175621415,0.30546815318479065,-1.7271013862296416,-1.959819227897097,-2.022716076573824,-0.5845285631159532,-0.8251645276047719,-0.7810919557940704,0.3234800586108003,0.13737062308371817,0.24989709248586334,2.0,1.0,22.0
0.21910966945209615,0.1762365347368155,0.18730462787508914,0.30546815318479065,1.8449054500733721,1.624852522103595,1.8788490810505665,0.4889788925192737,0.19303294031873908,0.35768771596179505,-0.4824995274522165,-0.6545694620725201,-0.5734527735815558,2.0,1.0,22.0
-0.18649140150777133,-0.44379991708222194,-0.3202193209292992,0.30546815318479065,1.621655022804434,1.4995143490266478,1.7424307188958676,-0.25271716773779224,-0.4103433369692674,-0.33823319455567824,-0.5134987423007942,-0.6695117278301849,-0.6051200761226102,2.0,1.0,22.0
0.8275112758918973,0.5305430786334083,0.6860613683508039,0.30546815318479065,1.1255429622067932,0.9229587528726904,1.1149062529842524,0.391387305643344,0.2118884489839893,0.35768771596179505,-0.7459928536651259,-0.8488189169221634,-0.7951238913689377,2.0,1.0,22.0
0.016309133972162413,0.2648131707109637,0.2642612343156785,0.30546815318479065,2.092961480372193,1.8755288682574898,2.1516858053599646,1.1526016832755959,0.8529757436024961,1.0957856513591153,-0.12600855669357447,-0.295955083888563,-0.209278794359428,2.0,1.0,22.0
-0.18649140150777133,-0.44379991708222194,-0.3202193209292992,0.30546815318479065,-1.2061837226021188,-1.4333989009739185,-1.4497589555240884,0.44994225776890184,0.17417743165348887,0.35768771596179505,-0.3895018829064839,-0.5499736017688659,-0.478450865958392,2.0,1.0,22.0
0.21910966945209615,-0.000916737211480926,0.13762378067926692,-1.3111841749212618,-0.2883764104964832,-0.5560316894352875,-0.4675467480102557,-0.5845285631159532,-0.8440200362700221,-0.7810919557940704,2.105934912404011,1.8258466536998488,2.0549333373259744,2.0,1.0,22.0
0.6247107404119636,0.3533898066851119,0.5077947990010858,0.30546815318479065,1.1751541682665572,0.9730940221034693,1.169473597846132,0.5475338446448315,0.2684549749797399,0.44204176572148884,-0.6839944239679707,-0.8338766511644985,-0.7792902400984103,2.0,1.0,22.0
0.016309133972162413,-0.000916737211480926,0.08599466496596045,0.30546815318479065,2.092961480372193,1.8755288682574898,2.1516858053599646,1.074528413774852,0.7586982002762451,1.0114316015994216,-0.15700777154215206,-0.34078188116155766,-0.2409460969004826,2.0,1.0,22.0
-0.2878916692477382,-0.3552232811080738,-0.3523657514677728,0.30546815318479065,1.671266228864198,1.4744467144112583,1.7424307188958676,-0.23319885036260626,-0.4103433369692674,-0.3593217069956017,-0.4979991348765053,-0.6545694620725201,-0.6051200761226102,2.0,1.0,22.0
-0.18649140150777133,-0.3552232811080738,-0.2520299228173849,0.30546815318479065,-1.7767125922894058,-2.009954497127876,-2.0772834214357037,-0.6040468804911392,-0.8440200362700221,-0.8021804682339938,0.46297652542939943,0.2718510149027021,0.3923999539206089,2.0,1.0,22.0
-0.38929193698770503,-0.7095298250046665,-0.5637528856147066,0.30546815318479065,-1.0077388983630624,-1.232857824050803,-1.2314895760765698,0.35235067089297206,0.07989988832723788,0.23115664132225447,-0.4979991348765053,-0.6695117278301849,-0.5892864248520829,2.0,1.0,22.0
0.016309133972162413,-0.3552232811080738,-0.17409918211805478,0.30546815318479065,-1.230989325632001,-1.458466535589308,-1.4770426279550282,0.5084972098944597,0.23074395764923947,0.399864740841642,-0.3740022754821951,-0.535031336011201,-0.46261721468786465,3.0,1.0,22.0
0.6247107404119636,0.6191197146075565,0.6470959980011396,0.30546815318479065,1.1255429622067932,0.9229587528726904,1.1149062529842524,0.44994225776890184,0.17417743165348887,0.3365992035218716,-0.6994940313922595,-0.8637611826798283,-0.7951238913689377,3.0,1.0,22.0
0.21910966945209615,-0.08949337318562914,0.1015808131058262,0.30546815318479065,1.7208774349239622,1.4995143490266478,1.7697143913268074,-0.05753399398593276,-0.3349213023082666,-0.21170211991613763,-0.5134987423007942,-0.6844539935878498,-0.6209537273931375,3.0,1.0,22.0
0.21910966945209615,-0.000916737211480926,0.11814109550443407,-1.3111841749212618,-0.2635708074666013,-0.5058964202045086,-0.44026307557931604,-0.8187483716181847,-1.0514306315877744,-1.0552426175130751,1.9974376604339892,1.7361930591538595,1.944097778432283,3.0,1.0,22.0
-0.18649140150777133,-0.5323765530563702,-0.3689260338663807,0.30546815318479065,1.671266228864198,1.4493790797958688,1.7151470464649279,-0.25271716773779224,-0.48576537163026823,-0.422587244315372,-0.4979991348765053,-0.6695117278301849,-0.5892864248520829,3.0,1.0,22.0
0.11770940171212928,-0.26664664513392555,-0.07668575624389184,0.30546815318479065,1.7208774349239622,1.5245819836420373,1.7697143913268074,-0.0380156766107468,-0.2972102849777662,-0.19061360747621425,-0.5134987423007942,-0.6844539935878498,-0.6209537273931375,3.0,1.0,22.0
0.11770940171212928,-0.17807000915977733,0.004167387231663244,0.30546815318479065,-0.6604604559447139,-0.8819109394353504,-0.8495181620434129,0.6060887967703894,0.3061659923102403,0.5053073030412591,-0.5909967794222382,-0.7591653223761741,-0.7001219837457741,3.0,1.0,22.0
0.11770940171212928,-0.26664664513392555,-0.07668575624389184,0.30546815318479065,-0.6604604559447139,-0.8819109394353504,-0.8495181620434129,0.6060887967703894,0.3061659923102403,0.5053073030412591,-0.5909967794222382,-0.7591653223761741,-0.7001219837457741,3.0,1.0,22.0
0.320509937192063,0.08765989876266728,0.215554521378597,-1.3111841749212618,-0.2883764104964832,-0.5309640548198982,-0.4675467480102557,-0.5845285631159532,-0.8440200362700221,-0.8021804682339938,2.105934912404011,1.8407889194575138,2.0549333373259744,3.0,1.0,22.0
0.016309133972162413,-0.26664664513392555,-0.10883218678236545,0.30546815318479065,-1.4542397529009392,-1.458466535589308,-1.4770426279550282,0.5280155272696456,0.28731048364499007,0.42095325328156535,-0.3740022754821951,-0.44537774146521186,-0.46261721468786465,3.0,1.0,22.0
0.11770940171212928,-0.17807000915977733,-0.04453932570541823,0.30546815318479065,-0.6604604559447139,-0.8819109394353504,-0.8495181620434129,0.6060887967703894,0.3061659923102403,0.5053073030412591,-0.5909967794222382,-0.7591653223761741,-0.7001219837457741,3.0,1.0,22.0
0.016309133972162413,-0.08949337318562914,0.004167387231663244,0.30546815318479065,-0.6604604559447139,-0.8819109394353504,-0.8495181620434129,0.6060887967703894,0.3061659923102403,0.5053073030412591,-0.5909967794222382,-0.7591653223761741,-0.7001219837457741,3.0,1.0,22.0
0.11770940171212928,-0.26664664513392555,-0.07668575624389184,0.30546815318479065,-0.6604604559447139,-0.8819109394353504,-0.8495181620434129,0.6060887967703894,0.32502150097549054,0.5053073030412591,-0.5909967794222382,-0.7591653223761741,-0.6842883324752467,3.0,1.0,22.0
0.11770940171212928,-0.17807000915977733,0.004167387231663244,0.30546815318479065,-1.230989325632001,-1.458466535589308,-1.4497589555240884,0.5475338446448315,0.2495994663144897,0.42095325328156535,-0.3740022754821951,-0.5499736017688659,-0.46261721468786465,3.0,1.0,22.0
0.11770940171212928,-0.26664664513392555,-0.07668575624389184,0.30546815318479065,-1.230989325632001,-1.458466535589308,-1.4770426279550282,0.5084972098944597,0.23074395764923947,0.399864740841642,-0.3740022754821951,-0.535031336011201,-0.46261721468786465,3.0,1.0,22.0
0.11770940171212928,-0.26664664513392555,-0.07668575624389184,0.30546815318479065,-1.230989325632001,-1.458466535589308,-1.4770426279550282,0.5280155272696456,0.23074395764923947,0.399864740841642,-0.3740022754821951,-0.535031336011201,-0.46261721468786465,3.0,1.0,22.0
0.4219102049320299,0.7076963505817048,0.5662428545255831,0.30546815318479065,1.1255429622067932,0.9981616567188588,1.1421899254151922,0.44994225776890184,0.4758655702974921,0.37877622840171854,-0.6994940313922595,-0.7442230566185093,-0.7951238913689377,3.0,1.0,22.0
0.5233104726719967,0.4419664426592601,0.5399412295395595,0.30546815318479065,1.1751541682665572,0.9730940221034693,1.169473597846132,0.5084972098944597,0.23074395764923947,0.399864740841642,-0.6839944239679707,-0.8338766511644985,-0.7792902400984103,3.0,1.0,22.0
-0.18649140150777133,-0.44379991708222194,-0.3367796033279071,0.30546815318479065,1.671266228864198,1.4493790797958688,1.7151470464649279,-0.25271716773779224,-0.5234763889607686,-0.422587244315372,-0.4979991348765053,-0.6695117278301849,-0.5892864248520829,3.0,1.0,22.0
0.016309133972162413,-0.3552232811080738,-0.17409918211805478,0.30546815318479065,1.7456830379538442,1.5496496182574266,1.7969980637577474,0.07909422764036887,-0.20293274165151517,-0.06408253283667363,-0.5134987423007942,-0.6844539935878498,-0.6209537273931375,3.0,1.0,22.0
0.8275112758918973,0.5305430786334083,0.7026216507494117,0.30546815318479065,1.1007373591769112,0.8978911182573008,1.0876225805533126,0.31331403614260017,0.061044379661987655,0.1889796164424076,-0.7149936388165483,-0.8488189169221634,-0.8109575426394651,3.0,1.0,22.0
0.11770940171212928,-0.000916737211480926,0.03728795202887898,0.30546815318479065,-0.13954279231719102,-0.38055824712756137,-0.27656104099367723,0.8207902878974347,0.5324320962932426,0.7372809398804168,-0.6529952091193933,-0.8338766511644985,-0.7634565888278833,3.0,1.0,22.0
0.4219102049320299,-0.000916737211480926,0.215554521378597,-1.3111841749212618,-0.2883764104964832,-0.5309640548198982,-0.4675467480102557,-0.7992300542429988,-0.9948641055920237,-0.9708885677533814,1.9974376604339892,1.7660775906691892,1.9757650809733378,3.0,1.0,22.0
0.016309133972162413,-0.26664664513392555,-0.13513381176838907,0.30546815318479065,-0.6604604559447139,-0.8819109394353504,-0.8495181620434129,0.6060887967703894,0.32502150097549054,0.5053073030412591,-0.5909967794222382,-0.7591653223761741,-0.7001219837457741,3.0,1.0,22.0
0.8275112758918973,0.6191197146075565,0.7513283636864933,0.30546815318479065,1.1999597712964392,0.9981616567188588,1.1967572702770717,0.6060887967703894,0.32502150097549054,0.5053073030412591,-0.6684948165436819,-0.8189343854068336,-0.7634565888278833,3.0,1.0,22.0
0.11770940171212928,-0.17807000915977733,-0.007522223873236753,0.30546815318479065,-1.230989325632001,-1.458466535589308,-1.4770426279550282,0.5280155272696456,0.23074395764923947,0.399864740841642,-0.3740022754821951,-0.535031336011201,-0.46261721468786465,3.0,1.0,22.0
-0.08509113376780446,-0.3552232811080738,-0.2325472376425527,0.30546815318479065,-1.230989325632001,-1.458466535589308,-1.4770426279550282,0.5084972098944597,0.2118884489839893,0.399864740841642,-0.3740022754821951,-0.535031336011201,-0.46261721468786465,3.0,1.0,22.0
0.016309133972162413,-0.17807000915977733,-0.1049356497473997,0.30546815318479065,-1.230989325632001,-1.4835341702046976,-1.4770426279550282,0.5280155272696456,0.23074395764923947,0.399864740841642,-0.3585026680579063,-0.535031336011201,-0.46261721468786465,3.0,1.0,22.0
0.11770940171212928,-0.17807000915977733,-0.04453932570541823,0.30546815318479065,1.7208774349239622,1.4995143490266478,1.7697143913268074,-0.018497359235560888,-0.2972102849777662,-0.19061360747621425,-0.5134987423007942,-0.6844539935878498,-0.6209537273931375,3.0,1.0,22.0
0.11770940171212928,-0.26664664513392555,-0.07668575624389184,0.30546815318479065,-0.6604604559447139,-0.8819109394353504,-0.8495181620434129,0.6060887967703894,0.32502150097549054,0.5053073030412591,-0.5909967794222382,-0.7591653223761741,-0.7001219837457741,3.0,1.0,22.0
0.7261110081519305,0.5305430786334083,0.6831389655745789,0.30546815318479065,1.1255429622067932,0.9229587528726904,1.1149062529842524,0.41090562301852995,0.19303294031873908,0.35768771596179505,-0.7149936388165483,-0.8637611826798283,-0.7951238913689377,3.0,1.0,22.0
-0.08509113376780446,-0.26664664513392555,-0.17409918211805478,0.30546815318479065,-0.13954279231719102,-0.38055824712756137,-0.27656104099367723,0.8403086052726206,0.5324320962932426,0.7372809398804168,-0.6529952091193933,-0.8338766511644985,-0.7634565888278833,3.0,1.0,22.0
0.8275112758918973,0.4419664426592601,0.663656280399746,0.30546815318479065,1.1503485652366752,0.9229587528726904,1.1149062529842524,0.44994225776890184,0.19303294031873908,0.35768771596179505,-0.6994940313922595,-0.8488189169221634,-0.7951238913689377,3.0,1.0,22.0
0.4219102049320299,-0.000916737211480926,0.215554521378597,-1.3111841749212618,-0.2883764104964832,-0.5560316894352875,-0.4675467480102557,-0.7797117368678127,-1.0325751229225242,-0.9919770801933048,2.012937267858278,1.7511353249115245,1.9599314297028103,3.0,1.0,22.0
-0.08509113376780446,-0.26664664513392555,-0.14195275157958118,0.30546815318479065,-1.230989325632001,-1.458466535589308,-1.4770426279550282,0.5280155272696456,0.23074395764923947,0.399864740841642,-0.3740022754821951,-0.535031336011201,-0.46261721468786465,3.0,1.0,22.0
0.11770940171212928,-0.17807000915977733,-0.04453932570541823,0.30546815318479065,-0.6604604559447139,-0.8819109394353504,-0.8495181620434129,0.6060887967703894,0.3061659923102403,0.5053073030412591,-0.5909967794222382,-0.7591653223761741,-0.7001219837457741,3.0,1.0,22.0
-0.18649140150777133,-0.5323765530563702,-0.3689260338663807,0.30546815318479065,1.671266228864198,1.4493790797958688,1.7151470464649279,-0.25271716773779224,-0.5046208802955184,-0.422587244315372,-0.4979991348765053,-0.6695117278301849,-0.5892864248520829,3.0,1.0,22.0
0.21910966945209615,-0.17807000915977733,0.02072766963027111,0.30546815318479065,-0.6604604559447139,-0.8819109394353504,-0.8495181620434129,0.6060887967703894,0.3061659923102403,0.5053073030412591,-0.5909967794222382,-0.7591653223761741,-0.7001219837457741,3.0,1.0,22.0
0.016309133972162413,-0.26664664513392555,-0.10883218678236545,0.30546815318479065,1.7704886409837264,1.5496496182574266,1.7969980637577474,0.07909422764036887,-0.184077232986265,-0.06408253283667363,-0.5134987423007942,-0.6844539935878498,-0.6209537273931375,3.0,1.0,22.0
0.11770940171212928,-0.17807000915977733,-0.04843586274038397,0.30546815318479065,-0.6604604559447139,-0.8819109394353504,-0.8495181620434129,0.6060887967703894,0.32502150097549054,0.5053073030412591,-0.5909967794222382,-0.7591653223761741,-0.7001219837457741,3.0,1.0,22.0
0.11770940171212928,-0.26664664513392555,-0.07668575624389184,0.30546815318479065,1.7456830379538442,1.5496496182574266,1.7969980637577474,0.07909422764036887,-0.16522172432101476,-0.06408253283667363,-0.5134987423007942,-0.6844539935878498,-0.6209537273931375,3.0,1.0,22.0
0.320509937192063,-0.08949337318562914,0.11814109550443407,0.30546815318479065,1.7208774349239622,1.4995143490266478,1.7697143913268074,-0.05753399398593276,-0.3160657936430164,-0.21170211991613763,-0.5134987423007942,-0.6844539935878498,-0.6209537273931375,3.0,1.0,22.0
0.21910966945209615,0.08765989876266728,0.16002886863032478,-1.3111841749212618,-0.2635708074666013,-0.5058964202045086,-0.44026307557931604,-0.8187483716181847,-1.0702861402530246,-1.0552426175130751,1.9974376604339892,1.7361930591538595,1.944097778432283,3.0,1.0,22.0
0.11770940171212928,-0.17807000915977733,0.001244984455438245,0.30546815318479065,1.7208774349239622,1.4995143490266478,1.7697143913268074,-0.05753399398593276,-0.3349213023082666,-0.21170211991613763,-0.5134987423007942,-0.6844539935878498,-0.6051200761226102,3.0,1.0,22.0
-0.18649140150777133,-0.44379991708222194,-0.3523657514677728,0.30546815318479065,1.671266228864198,1.4493790797958688,1.7151470464649279,-0.23319885036260626,-0.5046208802955184,-0.422587244315372,-0.4979991348765053,-0.6695117278301849,-0.5892864248520829,3.0,1.0,22.0
0.4219102049320299,-0.000916737211480926,0.215554521378597,-1.3111841749212618,-0.2635708074666013,-0.5058964202045086,-0.44026307557931604,-0.8187483716181847,-1.0702861402530246,-1.0552426175130751,1.9974376604339892,1.7361930591538595,1.944097778432283,3.0,1.0,22.0
0.8275112758918973,0.5305430786334083,0.7026216507494117,0.30546815318479065,1.1255429622067932,0.9229587528726904,1.1149062529842524,0.44994225776890184,0.19303294031873908,0.35768771596179505,-0.6994940313922595,-0.8637611826798283,-0.7951238913689377,3.0,1.0,22.0
-0.08509113376780446,-0.44379991708222194,-0.2715126079922177,0.30546815318479065,1.671266228864198,1.4493790797958688,1.7151470464649279,-0.23319885036260626,-0.5046208802955184,-0.422587244315372,-0.4979991348765053,-0.6695117278301849,-0.5892864248520829,3.0,1.0,22.0
0.11770940171212928,-0.17807000915977733,-0.027979043306810364,0.30546815318479065,-0.13954279231719102,-0.38055824712756137,-0.27656104099367723,0.8403086052726206,0.5324320962932426,0.7372809398804168,-0.6529952091193933,-0.8338766511644985,-0.7634565888278833,3.0,1.0,22.0
0.7261110081519305,0.7076963505817048,0.865302071959264,0.30546815318479065,1.1007373591769112,0.8978911182573008,1.0876225805533126,0.31331403614260017,0.061044379661987655,0.210068128882331,-0.7149936388165483,-0.8637611826798283,-0.8109575426394651,3.0,1.0,22.0
-0.18649140150777133,-0.000916737211480926,-0.10883218678236545,0.30546815318479065,-0.13954279231719102,-0.3554906125121719,-0.27656104099367723,0.8403086052726206,0.5701431136237431,0.7372809398804168,-0.6529952091193933,-0.8189343854068336,-0.7634565888278833,3.0,1.0,22.0
0.11770940171212928,-0.08949337318562914,0.02072766963027111,0.30546815318479065,-0.6604604559447139,-0.8819109394353504,-0.8495181620434129,0.6060887967703894,0.3061659923102403,0.5053073030412591,-0.5909967794222382,-0.7591653223761741,-0.7001219837457741,3.0,1.0,22.0
0.5233104726719967,0.4419664426592601,0.491234516602478,0.30546815318479065,1.1255429622067932,0.9229587528726904,1.1149062529842524,0.46946057514408773,0.19303294031873908,0.35768771596179505,-0.6994940313922595,-0.8488189169221634,-0.7951238913689377,3.0,1.0,22.0
0.016309133972162413,-0.17807000915977733,-0.04453932570541823,0.30546815318479065,1.7208774349239622,1.4995143490266478,1.7697143913268074,-0.05753399398593276,-0.3349213023082666,-0.21170211991613763,-0.5134987423007942,-0.6844539935878498,-0.6209537273931375,3.0,1.0,22.0
-0.08509113376780446,-0.08949337318562914,-0.07668575624389184,0.30546815318479065,-1.2061837226021188,-1.458466535589308,-1.4497589555240884,0.5475338446448315,0.2495994663144897,0.42095325328156535,-0.3740022754821951,-0.5499736017688659,-0.46261721468786465,3.0,1.0,22.0
0.11770940171212928,-0.08949337318562914,0.02072766963027111,0.30546815318479065,-1.230989325632001,-1.458466535589308,-1.4770426279550282,0.5280155272696456,0.23074395764923947,0.399864740841642,-0.3740022754821951,-0.535031336011201,-0.46261721468786465,3.0,1.0,22.0
0.6247107404119636,0.4419664426592601,0.6246909100500817,0.30546815318479065,1.1999597712964392,0.9981616567188588,1.1967572702770717,0.6060887967703894,0.32502150097549054,0.5053073030412591,-0.6684948165436819,-0.8189343854068336,-0.7634565888278833,3.0,1.0,22.0
0.8275112758918973,0.4419664426592601,0.663656280399746,0.30546815318479065,1.1255429622067932,0.9229587528726904,1.1149062529842524,0.44994225776890184,0.17417743165348887,0.35768771596179505,-0.6994940313922595,-0.8488189169221634,-0.7951238913689377,3.0,1.0,22.0
0.6247107404119636,0.4419664426592601,0.5243550813996938,0.30546815318479065,1.1007373591769112,0.8728234836419114,1.0876225805533126,0.2937957187674142,0.02333336233148725,0.1889796164424076,-0.7149936388165483,-0.8637611826798283,-0.8109575426394651,3.0,1.0,22.0
-0.08509113376780446,-0.3552232811080738,-0.19358186729288765,0.30546815318479065,-1.230989325632001,-1.458466535589308,-1.4770426279550282,0.5280155272696456,0.2118884489839893,0.399864740841642,-0.3740022754821951,-0.535031336011201,-0.46261721468786465,3.0,1.0,22.0
-0.08509113376780446,-0.17807000915977733,-0.13513381176838907,0.30546815318479065,-0.6604604559447139,-0.8819109394353504,-0.8495181620434129,0.6060887967703894,0.32502150097549054,0.5053073030412591,-0.606496386846527,-0.7591653223761741,-0.7001219837457741,3.0,1.0,22.0
0.016309133972162413,-0.26664664513392555,-0.0961684414187247,0.30546815318479065,-0.13954279231719102,-0.38055824712756137,-0.27656104099367723,0.8403086052726206,0.5701431136237431,0.7372809398804168,-0.6684948165436819,-0.8039921196491687,-0.7634565888278833,3.0,1.0,22.0
0.11770940171212928,-0.17807000915977733,-0.04453932570541823,0.30546815318479065,-0.6604604559447139,-0.8819109394353504,-0.8495181620434129,0.6060887967703894,0.3061659923102403,0.5053073030412591,-0.5909967794222382,-0.7591653223761741,-0.7001219837457741,3.0,1.0,22.0
-0.18649140150777133,-0.44379991708222194,-0.2880728903908256,0.30546815318479065,1.671266228864198,1.4493790797958688,1.7151470464649279,-0.25271716773779224,-0.5046208802955184,-0.422587244315372,-0.4979991348765053,-0.6695117278301849,-0.5892864248520829,3.0,1.0,22.0
0.11770940171212928,-0.17807000915977733,-0.04453932570541823,0.30546815318479065,1.7208774349239622,1.4995143490266478,1.7697143913268074,-0.05753399398593276,-0.3349213023082666,-0.21170211991613763,-0.5134987423007942,-0.6844539935878498,-0.6209537273931375,3.0,1.0,22.0
0.7261110081519305,0.7076963505817048,0.7347680812878854,0.30546815318479065,1.1255429622067932,0.9730940221034693,1.1149062529842524,0.44994225776890184,0.19303294031873908,0.3365992035218716,-0.6994940313922595,-0.8488189169221634,-0.7951238913689377,3.0,1.0,22.0
0.7261110081519305,0.5305430786334083,0.6217685072738567,0.30546815318479065,1.1255429622067932,0.9229587528726904,1.1149062529842524,0.44994225776890184,0.17417743165348887,0.3365992035218716,-0.6994940313922595,-0.8488189169221634,-0.7951238913689377,3.0,1.0,22.0
-0.08509113376780446,-0.44379991708222194,-0.2715126079922177,0.30546815318479065,1.671266228864198,1.4493790797958688,1.7151470464649279,-0.2722354851129782,-0.5046208802955184,-0.422587244315372,-0.4979991348765053,-0.6695117278301849,-0.5892864248520829,3.0,1.0,22.0
0.21910966945209615,-0.17807000915977733,0.02072766963027111,0.30546815318479065,1.7208774349239622,1.4995143490266478,1.7697143913268074,-0.05753399398593276,-0.3160657936430164,-0.21170211991613763,-0.5134987423007942,-0.6844539935878498,-0.6209537273931375,3.0,1.0,22.0
0.11770940171212928,-0.17807000915977733,0.004167387231663244,0.30546815318479065,-1.230989325632001,-1.458466535589308,-1.4770426279550282,0.5280155272696456,0.23074395764923947,0.399864740841642,-0.3740022754821951,-0.535031336011201,-0.46261721468786465,3.0,1.0,22.0
0.21910966945209615,-0.000916737211480926,0.11814109550443407,0.30546815318479065,1.7208774349239622,1.4995143490266478,1.7697143913268074,-0.05753399398593276,-0.2972102849777662,-0.21170211991613763,-0.5134987423007942,-0.6844539935878498,-0.6051200761226102,3.0,1.0,22.0
0.11770940171212928,-0.26664664513392555,-0.07668575624389184,0.30546815318479065,-0.6604604559447139,-0.8819109394353504,-0.8495181620434129,0.6060887967703894,0.32502150097549054,0.5053073030412591,-0.5909967794222382,-0.7591653223761741,-0.6842883324752467,3.0,1.0,22.0
0.016309133972162413,-0.26664664513392555,-0.0961684414187247,0.30546815318479065,-1.230989325632001,-1.4835341702046976,-1.4770426279550282,0.5280155272696456,0.23074395764923947,0.399864740841642,-0.3740022754821951,-0.535031336011201,-0.46261721468786465,3.0,1.0,22.0
0.016309133972162413,-0.26664664513392555,-0.10883218678236545,0.30546815318479065,1.7456830379538442,1.4995143490266478,1.7697143913268074,-0.018497359235560888,-0.2972102849777662,-0.19061360747621425,-0.5134987423007942,-0.6844539935878498,-0.6209537273931375,3.0,1.0,22.0
0.4219102049320299,-0.000916737211480926,0.215554521378597,0.30546815318479065,-0.21395960140683715,-0.38055824712756137,-0.30384471342461705,0.742717018396691,0.5324320962932426,0.7372809398804168,-0.6684948165436819,-0.8189343854068336,-0.7634565888278833,3.0,1.0,22.0
0.5233104726719967,0.6191197146075565,0.5730617943367752,0.30546815318479065,1.1999597712964392,0.9981616567188588,1.1967572702770717,0.6256071141455753,0.3438770096407407,0.5263958154811825,-0.6684948165436819,-0.8189343854068336,-0.7634565888278833,3.0,1.0,22.0
-0.18649140150777133,-0.5323765530563702,-0.3689260338663807,0.30546815318479065,1.671266228864198,1.4493790797958688,1.7151470464649279,-0.25271716773779224,-0.5046208802955184,-0.422587244315372,-0.4979991348765053,-0.6695117278301849,-0.5892864248520829,3.0,1.0,22.0
0.11770940171212928,-0.17807000915977733,-0.011418760908202496,0.30546815318479065,1.7208774349239622,1.4995143490266478,1.7697143913268074,-0.05753399398593276,-0.3160657936430164,-0.21170211991613763,-0.5134987423007942,-0.6844539935878498,-0.6209537273931375,3.0,1.0,22.0
0.016309133972162413,-0.3552232811080738,-0.17409918211805478,0.30546815318479065,-1.230989325632001,-1.458466535589308,-1.4770426279550282,0.5084972098944597,0.23074395764923947,0.399864740841642,-0.3740022754821951,-0.535031336011201,-0.46261721468786465,3.0,1.0,22.0
0.11770940171212928,-0.26664664513392555,-0.07668575624389184,0.30546815318479065,-0.6604604559447139,-0.8819109394353504,-0.8495181620434129,0.6060887967703894,0.32502150097549054,0.5053073030412591,-0.5909967794222382,-0.7591653223761741,-0.6842883324752467,3.0,1.0,22.0
0.21910966945209615,-0.000916737211480926,0.05969303997993684,0.30546815318479065,-1.230989325632001,-1.458466535589308,-1.4770426279550282,0.5280155272696456,0.23074395764923947,0.399864740841642,-0.3740022754821951,-0.535031336011201,-0.46261721468786465,3.0,1.0,22.0
-0.08509113376780446,-0.3552232811080738,-0.2325472376425527,0.30546815318479065,-1.255794928661883,-1.458466535589308,-1.4770426279550282,0.4889788925192737,0.2495994663144897,0.399864740841642,-0.3740022754821951,-0.535031336011201,-0.46261721468786465,3.0,1.0,22.0
0.11770940171212928,-0.08949337318562914,0.007089790007888243,0.30546815318479065,-1.230989325632001,-1.4333989009739185,-1.4770426279550282,0.46946057514408773,0.23074395764923947,0.399864740841642,-0.4205010977550615,-0.535031336011201,-0.46261721468786465,3.0,1.0,22.0
-0.08509113376780446,-0.44379991708222194,-0.2715126079922177,0.30546815318479065,1.671266228864198,1.4493790797958688,1.7151470464649279,-0.25271716773779224,-0.5234763889607686,-0.422587244315372,-0.4979991348765053,-0.6695117278301849,-0.5892864248520829,3.0,1.0,22.0
0.016309133972162413,-0.17807000915977733,-0.0961684414187247,0.30546815318479065,-1.230989325632001,-1.458466535589308,-1.4770426279550282,0.5280155272696456,0.23074395764923947,0.399864740841642,-0.3740022754821951,-0.535031336011201,-0.46261721468786465,3.0,1.0,22.0
0.11770940171212928,0.2648131707109637,0.13470137790304193,0.30546815318479065,-1.230989325632001,-1.458466535589308,-1.4770426279550282,0.5280155272696456,0.23074395764923947,0.399864740841642,-0.3740022754821951,-0.535031336011201,-0.46261721468786465,3.0,1.0,22.0
0.8275112758918973,0.3533898066851119,0.6052082248752488,0.30546815318479065,1.1007373591769112,0.8978911182573008,1.0876225805533126,0.3328323535177862,0.061044379661987655,0.210068128882331,-0.7149936388165483,-0.8637611826798283,-0.8109575426394651,3.0,1.0,22.0
0.6247107404119636,0.5305430786334083,0.5769583313717409,0.30546815318479065,1.1999597712964392,0.9981616567188588,1.1967572702770717,0.6060887967703894,0.3438770096407407,0.5053073030412591,-0.6684948165436819,-0.8189343854068336,-0.7634565888278833,3.0,1.0,22.0
0.21910966945209615,-0.17807000915977733,0.02072766963027111,0.30546815318479065,-1.230989325632001,-1.4835341702046976,-1.4770426279550282,0.5280155272696456,0.23074395764923947,0.42095325328156535,-0.3740022754821951,-0.535031336011201,-0.46261721468786465,3.0,1.0,22.0
1.030311811371831,0.7076963505817048,0.8808882200991298,0.30546815318479065,1.1007373591769112,0.8728234836419114,1.0876225805533126,0.31331403614260017,0.04218887099673745,0.1889796164424076,-0.7149936388165483,-0.8637611826798283,-0.8109575426394651,3.0,1.0,22.0
-0.18649140150777133,-0.26664664513392555,-0.14195275157958118,0.30546815318479065,-1.230989325632001,-1.4835341702046976,-1.4770426279550282,0.5280155272696456,0.23074395764923947,0.42095325328156535,-0.3740022754821951,-0.535031336011201,-0.46261721468786465,3.0,1.0,22.0
0.016309133972162413,-0.26664664513392555,-0.14195275157958118,0.30546815318479065,1.7704886409837264,1.5245819836420373,1.7969980637577474,0.07909422764036887,-0.20293274165151517,-0.06408253283667363,-0.5134987423007942,-0.6844539935878498,-0.6209537273931375,3.0,1.0,22.0
0.016309133972162413,-0.3552232811080738,-0.17409918211805478,0.30546815318479065,1.7704886409837264,1.5496496182574266,1.7969980637577474,0.07909422764036887,-0.184077232986265,-0.06408253283667363,-0.5134987423007942,-0.6844539935878498,-0.6209537273931375,3.0,1.0,22.0
0.016309133972162413,-0.26664664513392555,-0.09324603864249971,0.30546815318479065,1.7208774349239622,1.5496496182574266,1.7697143913268074,-0.018497359235560888,-0.1275107069905144,-0.14843658259636733,-0.5134987423007942,-0.6695117278301849,-0.6209537273931375,3.0,1.0,22.0
0.9289115436318642,0.5305430786334083,0.7805523914487419,0.30546815318479065,1.1255429622067932,0.9229587528726904,1.1149062529842524,0.44994225776890184,0.17417743165348887,0.3365992035218716,-0.6994940313922595,-0.8637611826798283,-0.7951238913689377,3.0,1.0,22.0
0.7261110081519305,0.3533898066851119,0.588647942476641,0.30546815318479065,1.075931756147029,0.8978911182573008,1.0876225805533126,0.31331403614260017,0.07989988832723788,0.210068128882331,-0.7304932462408371,-0.8338766511644985,-0.8109575426394651,3.0,1.0,22.0
0.11770940171212928,-0.17807000915977733,-0.060125473845283973,0.30546815318479065,-0.6604604559447139,-0.8819109394353504,-0.8495181620434129,0.6060887967703894,0.3061659923102403,0.5053073030412591,-0.5909967794222382,-0.7591653223761741,-0.7001219837457741,3.0,1.0,22.0
0.8275112758918973,0.4419664426592601,0.6539149378123303,0.30546815318479065,1.1255429622067932,0.9229587528726904,1.1149062529842524,0.44994225776890184,0.17417743165348887,0.35768771596179505,-0.6994940313922595,-0.8488189169221634,-0.7951238913689377,3.0,1.0,22.0
-0.08509113376780446,-0.3552232811080738,-0.19065946451666266,0.30546815318479065,-1.230989325632001,-1.458466535589308,-1.4770426279550282,0.5084972098944597,0.23074395764923947,0.399864740841642,-0.3740022754821951,-0.535031336011201,-0.46261721468786465,3.0,1.0,22.0
0.11770940171212928,-0.17807000915977733,-0.060125473845283973,0.30546815318479065,-0.13954279231719102,-0.38055824712756137,-0.27656104099367723,0.8403086052726206,0.5324320962932426,0.7372809398804168,-0.6529952091193933,-0.8338766511644985,-0.7634565888278833,3.0,1.0,22.0
0.016309133972162413,-0.26664664513392555,-0.0961684414187247,0.30546815318479065,-1.230989325632001,-1.4835341702046976,-1.4770426279550282,0.5280155272696456,0.23074395764923947,0.399864740841642,-0.3740022754821951,-0.535031336011201,-0.46261721468786465,3.0,1.0,22.0
0.016309133972162413,-0.17807000915977733,-0.027979043306810364,0.30546815318479065,-1.230989325632001,-1.4835341702046976,-1.4770426279550282,0.5280155272696456,0.23074395764923947,0.42095325328156535,-0.3740022754821951,-0.535031336011201,-0.46261721468786465,3.0,1.0,22.0
0.016309133972162413,-0.3552232811080738,-0.17409918211805478,0.30546815318479065,-0.6604604559447139,-0.8819109394353504,-0.8495181620434129,0.6060887967703894,0.32502150097549054,0.5053073030412591,-0.5909967794222382,-0.7591653223761741,-0.6842883324752467,3.0,1.0,22.0
0.9289115436318642,0.6191197146075565,0.8321815071620483,0.30546815318479065,1.051126153117147,0.8226882144111325,1.005771563260493,0.31331403614260017,0.02333336233148725,0.16789110400248416,-0.7149936388165483,-0.8787034484374932,-0.8267911939099923,5.0,0.0,22.0
0.320509937192063,0.08765989876266728,0.215554521378597,0.30546815318479065,-1.230989325632001,-1.458466535589308,-1.4770426279550282,0.6841620662711332,0.40044353563649127,0.5896613528009529,-0.3430030606336175,-0.5200890702535361,-0.43094991214681005,5.0,0.0,22.0
0.6247107404119636,0.2648131707109637,0.488312113826253,0.30546815318479065,-1.7022957831997596,-1.959819227897097,-2.022716076573824,-0.6430835152415111,-0.8817310536005225,-0.8443574931138408,0.40097809573224424,0.21208195187204257,0.32906534883849975,5.0,0.0,22.0
0.9289115436318642,0.7076963505817048,0.9461552154348192,0.30546815318479065,1.7704886409837264,1.5496496182574266,1.8242817361886872,0.3328323535177862,0.061044379661987655,0.210068128882331,-0.5134987423007942,-0.6844539935878498,-0.6209537273931375,5.0,0.0,22.0
0.8275112758918973,0.6191197146075565,0.8321815071620483,0.30546815318479065,1.051126153117147,0.8226882144111325,1.005771563260493,0.31331403614260017,0.02333336233148725,0.16789110400248416,-0.7149936388165483,-0.8787034484374932,-0.8267911939099923,5.0,0.0,22.0
0.7261110081519305,0.8848496225300011,0.8487417895606562,0.30546815318479065,-1.7271013862296416,-1.959819227897097,-2.022716076573824,-0.6430835152415111,-0.8817310536005225,-0.8443574931138408,0.40097809573224424,0.21208195187204257,0.32906534883849975,5.0,0.0,22.0
0.9289115436318642,0.8848496225300011,0.9461552154348192,0.30546815318479065,1.7704886409837264,1.5496496182574266,1.8242817361886872,0.31331403614260017,0.061044379661987655,0.210068128882331,-0.528998349725083,-0.6844539935878498,-0.6209537273931375,5.0,0.0,22.0
-0.38929193698770503,-0.44379991708222194,-0.46633945974054364,0.30546815318479065,-0.7348772650343599,-0.9571138432815188,-0.9313691793362323,0.17668581451629856,-0.10865519832526416,0.02027151692302011,-0.5909967794222382,-0.7591653223761741,-0.7001219837457741,5.0,0.0,22.0
-0.2878916692477382,-0.000916737211480926,-0.17409918211805478,0.30546815318479065,-0.7348772650343599,-0.9571138432815188,-0.9313691793362323,0.17668581451629856,-0.10865519832526416,0.02027151692302011,-0.606496386846527,-0.7591653223761741,-0.7001219837457741,5.0,0.0,22.0
0.4219102049320299,0.08765989876266728,0.2321148037772049,0.30546815318479065,1.7952942440136084,1.5747172528728162,1.8242817361886872,0.3328323535177862,0.061044379661987655,0.210068128882331,-0.5134987423007942,-0.6844539935878498,-0.6051200761226102,5.0,0.0,22.0
0.11770940171212928,0.796272986555853,0.5077947990010858,0.30546815318479065,1.7952942440136084,1.5747172528728162,1.8242817361886872,0.31331403614260017,0.04218887099673745,0.1889796164424076,-0.5134987423007942,-0.6695117278301849,-0.6051200761226102,5.0,0.0,22.0
1.5373131500716655,1.239156166426594,1.520894428092381,0.30546815318479065,1.7952942440136084,1.5747172528728162,1.8242817361886872,0.3328323535177862,0.061044379661987655,0.210068128882331,-0.5134987423007942,-0.6844539935878498,-0.6051200761226102,5.0,0.0,22.0
0.320509937192063,-0.08949337318562914,0.11814109550443407,-1.3111841749212618,1.9689334652227826,1.7752583297959317,2.0425511156362055,-1.2286330364970894,-1.485107330888529,-1.4981013787514672,0.927964748158063,0.7201189876326483,0.8674094920364276,5.0,0.0,22.0
0.320509937192063,-0.000916737211480926,0.16684780844151553,-1.3111841749212618,2.0185446712825468,1.7752583297959317,2.069834788067145,-1.2286330364970894,-1.4662518222232788,-1.4981013787514672,0.8969655333094855,0.6752921903596536,0.8199085382248457,5.0,0.0,22.0
-0.5920924724676387,-0.7095298250046665,-0.6611663114888695,0.30546815318479065,1.7456830379538442,1.5997848874882055,1.8242817361886872,0.25475908401704234,0.13646641432298848,0.25224515376217793,-0.528998349725083,-0.6545694620725201,-0.6051200761226102,5.0,0.0,22.0
0.11770940171212928,0.1762365347368155,0.19607183620376414,0.30546815318479065,1.8449054500733721,1.624852522103595,1.8788490810505665,0.46946057514408773,0.19303294031873908,0.35768771596179505,-0.4824995274522165,-0.6396271963148552,-0.5734527735815558,5.0,0.0,22.0
-0.2878916692477382,-0.000916737211480926,-0.018237700719394623,0.30546815318479065,1.7704886409837264,1.5496496182574266,1.8242817361886872,0.3328323535177862,0.061044379661987655,0.210068128882331,-0.5134987423007942,-0.6844539935878498,-0.6051200761226102,5.0,0.0,22.0
0.6247107404119636,0.5305430786334083,0.6539149378123303,0.30546815318479065,-0.7348772650343599,-0.9571138432815188,-0.9313691793362323,0.15716749714111264,-0.1275107069905144,0.02027151692302011,-0.5909967794222382,-0.7591653223761741,-0.7001219837457741,5.0,0.0,22.0
0.5233104726719967,0.08765989876266728,0.31296794725275995,0.30546815318479065,1.026320550087265,0.8477558490265219,1.005771563260493,0.2937957187674142,0.07989988832723788,0.1468025915625607,-0.7149936388165483,-0.8787034484374932,-0.8267911939099923,5.0,0.0,22.0
0.9289115436318642,0.6191197146075565,0.7805523914487419,0.30546815318479065,-0.7348772650343599,-0.9571138432815188,-0.9313691793362323,0.15716749714111264,-0.08979968966001396,0.02027151692302011,-0.6839944239679707,-0.7591653223761741,-0.7001219837457741,5.0,0.0,22.0
0.016309133972162413,-0.17807000915977733,-0.13513381176838907,0.30546815318479065,-1.230989325632001,-1.458466535589308,-1.4770426279550282,0.6451254315207613,0.3815880269712411,0.5896613528009529,-0.3430030606336175,-0.5051468044958712,-0.43094991214681005,5.0,0.0,22.0
-0.18649140150777133,0.08765989876266728,-0.15753889971944693,0.30546815318479065,-1.2061837226021188,-1.458466535589308,-1.4497589555240884,0.4889788925192737,0.2118884489839893,0.37877622840171854,-0.3895018829064839,-0.5499736017688659,-0.478450865958392,5.0,0.0,22.0
0.21910966945209615,-0.08949337318562914,0.03728795202887898,-1.3111841749212618,1.9937390682526646,1.7501906951805424,2.0425511156362055,-1.2286330364970894,-1.485107330888529,-1.4981013787514672,0.9434643555823518,0.7201189876326483,0.8832431433069549,5.0,0.0,22.0
1.030311811371831,0.796272986555853,0.9666120348683928,0.30546815318479065,-0.7348772650343599,-0.9571138432815188,-0.9313691793362323,0.15716749714111264,-0.1275107069905144,0.02027151692302011,-0.5909967794222382,-0.7591653223761741,-0.7001219837457741,5.0,0.0,22.0
0.4219102049320299,0.5305430786334083,0.5399412295395595,0.30546815318479065,-1.7519069892595238,-1.9848868625124865,-2.0499997490047637,-0.6040468804911392,-0.8440200362700221,-0.8021804682339938,0.43197731058082184,0.24196648338737234,0.3607326513795543,5.0,0.0,22.0
1.3345126145917316,1.1505795304524458,1.2705419235957816,0.30546815318479065,-1.255794928661883,-1.458466535589308,-1.4770426279550282,0.742717018396691,0.45701006163224195,0.6529268901207231,-0.3275034532093287,-0.47526227298054147,-0.4151162608762827,5.0,0.0,22.0
0.320509937192063,1.0620028944782975,0.8165953590221826,0.30546815318479065,-1.7271013862296416,-1.9096839586663181,-1.9954324041428841,-0.662601832616697,-0.8817310536005225,-0.8443574931138408,0.38547848830795545,0.1971396861143777,0.3132316975679725,5.0,0.0,22.0
0.320509937192063,0.7076963505817048,0.36167466018984146,0.30546815318479065,1.8697110531032544,1.6499201567189843,1.9061327534815062,0.5280155272696456,0.2495994663144897,0.42095325328156535,-0.4669999200279279,-0.6246849305571903,-0.5576191223110285,5.0,0.0,22.0
0.5233104726719967,0.6191197146075565,0.6373546554137224,0.30546815318479065,-1.230989325632001,-1.458466535589308,-1.4770426279550282,0.742717018396691,0.45701006163224195,0.6529268901207231,-0.3275034532093287,-0.49020453873820635,-0.4151162608762827,5.0,0.0,22.0
0.8275112758918973,0.6191197146075565,0.7415870210990775,0.30546815318479065,1.051126153117147,0.8477558490265219,1.005771563260493,0.31331403614260017,0.02333336233148725,0.16789110400248416,-0.7304932462408371,-0.8787034484374932,-0.8267911939099923,5.0,0.0,22.0
0.4219102049320299,0.2648131707109637,0.39382109072831506,-1.3111841749212618,1.9937390682526646,1.8003259644113212,2.069834788067145,-1.2481513538722753,-1.4662518222232788,-1.4981013787514672,0.8969655333094855,0.7051767218749834,0.8199085382248457,5.0,0.0,22.0
0.320509937192063,-0.000916737211480926,0.15028752604290768,0.30546815318479065,1.8449054500733721,1.6499201567189843,1.9061327534815062,0.5280155272696456,0.2495994663144897,0.42095325328156535,-0.4824995274522165,-0.6246849305571903,-0.5576191223110285,5.0,0.0,22.0
0.320509937192063,-0.000916737211480926,0.16684780844151553,0.30546815318479065,-1.2061837226021188,-1.458466535589308,-1.4497589555240884,0.723198701021505,0.43815455296699174,0.6318383776807996,-0.3430030606336175,-0.5051468044958712,-0.43094991214681005,5.0,0.0,22.0
0.320509937192063,-0.000916737211480926,0.1834080908401234,0.30546815318479065,1.051126153117147,0.8226882144111325,1.0330552356914329,0.27427740139222834,0.0044778536662370425,0.1468025915625607,-0.7149936388165483,-0.8637611826798283,-0.8267911939099923,5.0,0.0,22.0
-0.08509113376780446,-0.000916737211480926,-0.04453932570541823,0.30546815318479065,-1.2806005316917648,-1.458466535589308,-1.4770426279550282,0.6841620662711332,0.41929904430174153,0.5896613528009529,-0.3430030606336175,-0.5051468044958712,-0.43094991214681005,5.0,0.0,22.0
0.4219102049320299,0.4419664426592601,0.45908808606400436,0.30546815318479065,1.7704886409837264,1.5496496182574266,1.8242817361886872,0.31331403614260017,0.04218887099673745,0.1889796164424076,-0.5134987423007942,-0.6844539935878498,-0.6209537273931375,5.0,0.0,22.0
0.11770940171212928,0.7076963505817048,0.3782349425884493,0.30546815318479065,1.7704886409837264,1.5747172528728162,1.8242817361886872,0.31331403614260017,0.061044379661987655,0.1889796164424076,-0.5134987423007942,-0.6695117278301849,-0.6051200761226102,5.0,0.0,22.0
0.4219102049320299,0.2648131707109637,0.36167466018984146,0.30546815318479065,1.7952942440136084,1.5747172528728162,1.8242817361886872,0.31331403614260017,0.061044379661987655,0.210068128882331,-0.5134987423007942,-0.6844539935878498,-0.6051200761226102,5.0,0.0,22.0
0.6247107404119636,0.3533898066851119,0.5399412295395595,0.30546815318479065,1.7704886409837264,1.5496496182574266,1.8242817361886872,0.3328323535177862,0.061044379661987655,0.210068128882331,-0.5134987423007942,-0.6844539935878498,-0.6209537273931375,5.0,0.0,22.0
0.320509937192063,-0.000916737211480926,0.19899423897998914,-1.3111841749212618,1.9937390682526646,1.7752583297959317,2.069834788067145,-1.2286330364970894,-1.485107330888529,-1.4981013787514672,0.927964748158063,0.7051767218749834,0.8515758407659003,5.0,0.0,22.0
1.030311811371831,0.5305430786334083,0.8000350766235748,0.30546815318479065,-1.2061837226021188,-1.458466535589308,-1.4497589555240884,0.723198701021505,0.45701006163224195,0.6529268901207231,-0.3275034532093287,-0.46032000722287675,-0.4151162608762827,5.0,0.0,22.0
0.320509937192063,0.4419664426592601,0.39089868795209004,0.30546815318479065,1.7704886409837264,1.5496496182574266,1.8242817361886872,0.3328323535177862,0.061044379661987655,0.23115664132225447,-0.5134987423007942,-0.6844539935878498,-0.6209537273931375,5.0,0.0,22.0
0.7261110081519305,0.6191197146075565,0.7026216507494117,0.30546815318479065,1.7952942440136084,1.5747172528728162,1.8242817361886872,0.31331403614260017,0.061044379661987655,0.210068128882331,-0.5134987423007942,-0.6844539935878498,-0.6051200761226102,5.0,0.0,22.0
0.5233104726719967,0.7076963505817048,0.6704752202109382,0.30546815318479065,-0.6604604559447139,-0.8819109394353504,-0.8495181620434129,0.5865704793952033,0.3061659923102403,0.48421879060133566,-0.5909967794222382,-0.7591653223761741,-0.7001219837457741,5.0,0.0,22.0
0.4219102049320299,0.5305430786334083,0.6052082248752488,0.30546815318479065,-1.7022957831997596,-1.959819227897097,-1.9954324041428841,-0.662601832616697,-0.8817310536005225,-0.8654460055537642,0.38547848830795545,0.1971396861143777,0.3132316975679725,5.0,0.0,22.0
0.7261110081519305,0.6191197146075565,0.6704752202109382,0.30546815318479065,-1.2061837226021188,-1.458466535589308,-1.4497589555240884,0.723198701021505,0.43815455296699174,0.6318383776807996,-0.3275034532093287,-0.5051468044958712,-0.43094991214681005,5.0,0.0,22.0
0.4219102049320299,0.2648131707109637,0.31296794725275995,0.30546815318479065,-0.784488471094124,-0.9571138432815188,-0.9313691793362323,0.15716749714111264,-0.1275107069905144,-0.0008169955169033276,-0.5909967794222382,-0.7442230566185093,-0.7001219837457741,5.0,0.0,22.0
0.9289115436318642,0.796272986555853,0.8808882200991298,0.30546815318479065,-0.7348772650343599,-0.9821814778969082,-0.9313691793362323,0.15716749714111264,-0.1275107069905144,0.02027151692302011,-0.5909967794222382,-0.7591653223761741,-0.7001219837457741,5.0,0.0,22.0
0.016309133972162413,-0.17807000915977733,-0.060125473845283973,0.30546815318479065,-1.2061837226021188,-1.458466535589308,-1.4497589555240884,0.46946057514408773,0.19303294031873908,0.35768771596179505,-0.3895018829064839,-0.5499736017688659,-0.478450865958392,5.0,0.0,22.0
0.016309133972162413,-0.08949337318562914,-0.11857352936978258,0.30546815318479065,-1.230989325632001,-1.458466535589308,-1.4770426279550282,0.6841620662711332,0.40044353563649127,0.5896613528009529,-0.3430030606336175,-0.5051468044958712,-0.43094991214681005,5.0,0.0,22.0
1.131712079111798,0.796272986555853,1.0270083589103742,0.30546815318479065,1.051126153117147,0.8226882144111325,1.005771563260493,0.31331403614260017,0.02333336233148725,0.16789110400248416,-0.7304932462408371,-0.8787034484374932,-0.8267911939099923,5.0,0.0,22.0
0.4219102049320299,0.7076963505817048,0.39089868795209004,-1.3111841749212618,1.9937390682526646,1.8003259644113212,2.069834788067145,-1.2481513538722753,-1.4662518222232788,-1.4981013787514672,0.8504667110366191,0.7051767218749834,0.8515758407659003,5.0,0.0,22.0
0.4219102049320299,-0.000916737211480926,0.215554521378597,0.30546815318479065,1.8449054500733721,1.6499201567189843,1.9061327534815062,0.46946057514408773,0.2495994663144897,0.42095325328156535,-0.4824995274522165,-0.6246849305571903,-0.5576191223110285,5.0,0.0,22.0
1.131712079111798,0.7076963505817048,0.9295949330362113,0.30546815318479065,1.7952942440136084,1.5747172528728162,1.8242817361886872,0.3328323535177862,0.061044379661987655,0.210068128882331,-0.5134987423007942,-0.6844539935878498,-0.6051200761226102,5.0,0.0,22.0
-0.38929193698770503,-0.5323765530563702,-0.4497791773419358,0.30546815318479065,-0.7348772650343599,-0.9571138432815188,-0.9313691793362323,0.17668581451629856,-0.10865519832526416,0.02027151692302011,-0.606496386846527,-0.774107588133839,-0.7001219837457741,5.0,0.0,22.0
1.131712079111798,0.796272986555853,0.9783016459732927,0.30546815318479065,-1.7022957831997596,-1.959819227897097,-2.022716076573824,-0.6430835152415111,-0.8817310536005225,-0.8443574931138408,0.38547848830795545,0.1971396861143777,0.3132316975679725,5.0,0.0,22.0
0.7261110081519305,0.5305430786334083,0.6217685072738567,0.30546815318479065,-1.7271013862296416,-1.959819227897097,-2.022716076573824,-0.662601832616697,-0.8817310536005225,-0.8443574931138408,0.40097809573224424,0.21208195187204257,0.32906534883849975,5.0,0.0,22.0
0.9289115436318642,0.796272986555853,0.8390004469732405,0.30546815318479065,1.7952942440136084,1.624852522103595,1.8242817361886872,0.23524076664185642,0.061044379661987655,0.1889796164424076,-0.5134987423007942,-0.6545694620725201,-0.6051200761226102,5.0,0.0,22.0
0.016309133972162413,-0.08949337318562914,-0.037720385894226105,0.30546815318479065,1.051126153117147,0.8477558490265219,1.0330552356914329,0.25475908401704234,0.061044379661987655,0.1468025915625607,-0.7304932462408371,-0.8787034484374932,-0.8267911939099923,5.0,0.0,22.0
-0.38929193698770503,-0.5323765530563702,-0.49848589027901724,0.30546815318479065,-0.7348772650343599,-0.9571138432815188,-0.9313691793362323,0.17668581451629856,-0.10865519832526416,0.02027151692302011,-0.606496386846527,-0.7591653223761741,-0.7001219837457741,5.0,0.0,22.0
0.21910966945209615,-0.000916737211480926,0.13470137790304193,0.30546815318479065,-0.6604604559447139,-0.8819109394353504,-0.8495181620434129,0.5865704793952033,0.3061659923102403,0.48421879060133566,-0.5909967794222382,-0.7591653223761741,-0.7001219837457741,5.0,0.0,22.0
0.6247107404119636,1.1505795304524458,0.9783016459732927,0.30546815318479065,-1.2061837226021188,-1.458466535589308,-1.4497589555240884,0.742717018396691,0.43815455296699174,0.6529268901207231,-0.3430030606336175,-0.5051468044958712,-0.43094991214681005,5.0,0.0,22.0
0.9289115436318642,1.1505795304524458,1.0533099838963977,0.30546815318479065,-0.7348772650343599,-0.9571138432815188,-0.9313691793362323,0.15716749714111264,-0.1275107069905144,0.02027151692302011,-0.606496386846527,-0.7591653223761741,-0.7001219837457741,5.0,0.0,22.0
0.5233104726719967,0.7076963505817048,0.7221043359242446,0.30546815318479065,-1.7271013862296416,-1.959819227897097,-2.022716076573824,-0.6430835152415111,-0.8817310536005225,-0.8443574931138408,0.40097809573224424,0.21208195187204257,0.32906534883849975,5.0,0.0,22.0
0.21910966945209615,0.2648131707109637,0.23503720655342988,0.30546815318479065,1.7952942440136084,1.5747172528728162,1.8242817361886872,0.3328323535177862,0.061044379661987655,0.210068128882331,-0.5134987423007942,-0.6844539935878498,-0.6051200761226102,5.0,0.0,22.0
0.11770940171212928,-0.000916737211480926,-0.011418760908202496,0.30546815318479065,-1.230989325632001,-1.458466535589308,-1.4497589555240884,0.46946057514408773,0.19303294031873908,0.35768771596179505,-0.3895018829064839,-0.5499736017688659,-0.478450865958392,5.0,0.0,22.0
0.8275112758918973,0.4419664426592601,0.6704752202109382,0.30546815318479065,1.026320550087265,0.8477558490265219,1.005771563260493,0.31331403614260017,0.02333336233148725,0.16789110400248416,-0.7149936388165483,-0.8787034484374932,-0.8267911939099923,5.0,0.0,22.0
0.6247107404119636,0.3533898066851119,0.491234516602478,0.30546815318479065,-1.7271013862296416,-1.959819227897097,-2.022716076573824,-0.6430835152415111,-0.8817310536005225,-0.8443574931138408,0.40097809573224424,0.21208195187204257,0.32906534883849975,5.0,0.0,22.0
-0.5920924724676387,-0.886683096952963,-0.7585797373630325,-1.3111841749212618,0.3317636652505678,0.0957268105648383,0.24182873519417888,1.2697115875267115,0.9472532869287473,1.2012282135587327,-0.528998349725083,-0.6993962593455146,-0.6209537273931375,0.0,0.0,0.0
-0.8962932756875394,-1.0638363689012593,-1.0021133020484398,-1.3111841749212618,0.3565692682804498,0.17092971441100666,0.2691124076251187,1.2306749527763396,1.022675321589748,1.2012282135587327,-0.5444979571493718,-0.6695117278301849,-0.6209537273931375,0.0,0.0,0.0
-0.49069220472767194,-0.7981064609788148,-0.6611663114888695,-1.3111841749212618,0.3317636652505678,0.0957268105648383,0.24182873519417888,1.2501932701515257,0.928397778263497,1.180139701118809,-0.5444979571493718,-0.6993962593455146,-0.6367873786636647,0.0,0.0,0.0
-0.38929193698770503,-0.7095298250046665,-0.5637528856147066,3.5387728093968955,0.5302084894896242,1.4243114451804793,1.2513246151389514,1.03549177902448,1.9843062635175086,1.5808214374773542,0.6179725996722872,1.8706734509728435,1.6907593581038467,0.0,0.0,0.0
-0.5920924724676387,-0.7981064609788148,-0.6933127420273432,0.30546815318479065,1.3984045955354956,1.1987027336419744,1.4150266497245902,1.1526016832755959,0.8529757436024961,1.0957856513591153,-0.4360007051793503,-0.6097426647995254,-0.5417854710405011,0.0,0.0,0.0
-0.38929193698770503,-0.7095298250046665,-0.5637528856147066,0.30546815318479065,1.2743765803860854,1.2488380028727533,1.3877429772936503,-1.5604444318752506,-1.7113734348715313,-1.7933405529103952,0.46297652542939943,0.3166778121756967,0.40823360519113616,0.0,0.0,0.0
-0.9976935434275063,-1.0638363689012593,-1.0897853853351864,-1.3111841749212618,0.40618047434021387,0.17092971441100666,0.32367975248699826,0.9574185095237363,0.6455651482847439,0.8849005269598809,-0.6529952091193933,-0.8189343854068336,-0.7476229375573559,0.0,0.0,0.0
-1.3018943466474069,-0.6209531890305183,-1.0021133020484398,1.922120481290843,0.430986077370096,1.7251230605651529,1.0876225805533126,0.9574185095237363,1.8334621941955067,1.854972099196359,0.19948319921649,2.0649229058224865,0.8674094920364276,0.0,0.0,0.0
-0.6934927402076057,2.479229070064669,1.3260675763440553,-1.3111841749212618,0.3317636652505678,0.29626788748795396,0.24182873519417888,0.43042394039371584,0.5512876049584929,0.4631302781614123,-0.7304932462408371,-0.8189343854068336,-0.8267911939099923,0.0,0.0,0.0
-0.7948930079475726,-0.000916737211480926,-0.5150461726776251,0.30546815318479065,1.4232101985653778,1.1987027336419744,1.4150266497245902,1.1526016832755959,0.8529757436024961,1.0957856513591153,-0.4360007051793503,-0.6097426647995254,-0.5417854710405011,0.0,0.0,0.0
-1.3018943466474069,-1.4181429127978522,-1.3752067231464837,0.30546815318479065,1.4232101985653778,1.173635099026585,1.4150266497245902,1.1526016832755959,0.8341202349372459,1.0957856513591153,-0.4360007051793503,-0.6097426647995254,-0.5417854710405011,0.0,0.0,0.0
-1.20049407890744,-1.329566276823704,-1.2875346398597374,-1.3111841749212618,0.5302084894896242,0.2712002528725645,0.43281444221075743,0.8988635573981786,0.5889986222889934,0.8216349896401106,-0.6684948165436819,-0.8338766511644985,-0.7634565888278833,0.0,0.0,0.0
-0.5920924724676387,-0.000916737211480926,-0.07668575624389184,-1.3111841749212618,0.3813748713103319,0.1458620797956172,0.2691124076251187,0.9379001921485504,0.6455651482847439,0.8638120145199574,-0.6529952091193933,-0.8039921196491687,-0.7476229375573559,0.0,0.0,0.0
-0.6934927402076057,-0.9752597329271112,-0.8559931632371954,-1.3111841749212618,0.3317636652505678,0.0957268105648383,0.24182873519417888,1.2697115875267115,0.9472532869287473,1.222316725998656,-0.528998349725083,-0.6844539935878498,-0.6209537273931375,0.0,0.0,0.0
-0.8962932756875394,-0.9752597329271112,-1.0021133020484398,-1.3111841749212618,0.40618047434021387,0.17092971441100666,0.32367975248699826,0.9574185095237363,0.6455651482847439,0.8638120145199574,-0.6529952091193933,-0.8189343854068336,-0.7476229375573559,0.0,0.0,0.0
-0.5920924724676387,-0.7981064609788148,-0.6894162049923768,-1.3111841749212618,0.3317636652505678,0.0957268105648383,0.24182873519417888,1.2697115875267115,0.9472532869287473,1.2012282135587327,-0.528998349725083,-0.6993962593455146,-0.6209537273931375,0.0,0.0,0.0
-0.2878916692477382,-0.3552232811080738,-0.3689260338663807,-2.927836503027314,-0.5612380438251857,-0.8067080355891822,-0.7676671447505936,0.6841620662711332,0.3815880269712411,0.5896613528009529,-0.5754971719979494,-0.7442230566185093,-0.6684546812047194,0.0,0.0,0.0
-0.9976935434275063,-0.7981064609788148,-0.8949585335868605,1.922120481290843,-2.520880683185867,2.1262052144113843,0.2691124076251187,-1.8727375098782257,2.229427876165761,1.180139701118809,-0.9164885353323028,1.228156023393254,-0.43094991214681005,0.0,0.0,0.0
-0.8962932756875394,-0.886683096952963,-0.8949585335868605,0.30546815318479065,1.3735989925056136,1.2237703682573637,1.4150266497245902,1.113565048525224,0.8906867609329965,1.074697138919192,-0.4669999200279279,-0.6097426647995254,-0.5417854710405011,0.0,0.0,0.0
-0.8962932756875394,-0.5323765530563702,-0.5053048300902087,-1.3111841749212618,0.3317636652505678,0.0957268105648383,0.2145450627632391,1.2501932701515257,0.9095422695982467,1.180139701118809,-0.5444979571493718,-0.7143385251031795,-0.6367873786636647,0.0,0.0,0.0
-1.20049407890744,-0.886683096952963,-1.0897853853351864,0.30546815318479065,1.4232101985653778,1.173635099026585,1.4150266497245902,1.1526016832755959,0.8341202349372459,1.074697138919192,-0.4360007051793503,-0.6246849305571903,-0.5417854710405011,0.0,0.0,0.0
1.4359128823316987,2.3906524340905206,1.806315765903678,0.30546815318479065,0.23254125313103963,0.9730940221034693,0.37824709734887785,1.2306749527763396,1.9654507548522584,1.5808214374773542,-0.528998349725083,0.1971396861143777,-0.2409460969004826,0.0,0.0,0.0
-0.6934927402076057,0.08765989876266728,-0.2715126079922177,-1.3111841749212618,-0.21395960140683715,-0.2802877086660035,-0.27656104099367723,0.5865704793952033,0.4758655702974921,0.547484327921106,-0.7459928536651259,-0.774107588133839,-0.7792902400984103,0.0,0.0,0.0
-0.6934927402076057,-0.3552232811080738,-0.4244516866146536,-1.3111841749212618,0.3317636652505678,0.0957268105648383,0.24182873519417888,1.2697115875267115,0.9472532869287473,1.2012282135587327,-0.528998349725083,-0.6993962593455146,-0.6367873786636647,0.0,0.0,0.0
-0.49069220472767194,-0.26664664513392555,-0.4010724644048543,0.30546815318479065,0.7038477106987984,0.6221471374880169,0.6510838216582758,1.2892299049018976,1.8146066855302565,2.10803424847544,-0.4979991348765053,0.16725515459904794,0.26573074375639055,0.0,0.0,0.0
-0.49069220472767194,-0.7981064609788148,-0.6611663114888695,-1.3111841749212618,0.3317636652505678,0.0957268105648383,0.24182873519417888,1.2697115875267115,0.9472532869287473,1.2012282135587327,-0.528998349725083,-0.6993962593455146,-0.6209537273931375,0.0,0.0,0.0
-0.49069220472767194,-0.7095298250046665,-0.6446060290902617,0.30546815318479065,1.4232101985653778,1.1987027336419744,1.4150266497245902,1.1330833659004098,0.8341202349372459,1.074697138919192,-0.4515003126036391,-0.6097426647995254,-0.5417854710405011,0.0,0.0,0.0
-1.099093811167473,-1.329566276823704,-1.2456468667338472,-1.3111841749212618,0.3317636652505678,0.0957268105648383,0.2145450627632391,1.1330833659004098,0.8152647262719958,1.0536086264792683,-0.606496386846527,-0.7591653223761741,-0.6842883324752467,0.0,0.0,0.0
-0.8962932756875394,-0.7981064609788148,-0.7975451077126975,-1.3111841749212618,0.40618047434021387,0.17092971441100666,0.32367975248699826,0.9574185095237363,0.6455651482847439,0.8849005269598809,-0.6529952091193933,-0.8189343854068336,-0.7476229375573559,0.0,0.0,0.0
0.11770940171212928,0.08765989876266728,0.1571064658540998,-1.3111841749212618,0.3317636652505678,0.0957268105648383,0.24182873519417888,1.2697115875267115,0.9472532869287473,1.2012282135587327,-0.528998349725083,-0.6993962593455146,-0.6209537273931375,0.0,0.0,0.0
-0.6934927402076057,-0.886683096952963,-0.7780624225378654,-1.3111841749212618,0.3317636652505678,0.0957268105648383,0.24182873519417888,1.2697115875267115,0.9472532869287473,1.2012282135587327,-0.528998349725083,-0.6993962593455146,-0.6367873786636647,0.0,0.0,0.0
0.11770940171212928,-0.08949337318562914,0.02072766963027111,0.30546815318479065,0.7038477106987984,1.39924381056509,1.4423103221555296,-2.2631038573819446,-0.20293274165151517,-0.4647642691952189,-0.6374956016951046,1.5270013385465515,-0.2884470507120645,0.0,0.0,0.0
-0.8962932756875394,-0.886683096952963,-0.9046998761742769,0.30546815318479065,-0.5860436468550677,0.8226882144111325,0.5692328043654563,0.391387305643344,1.776895668199756,1.180139701118809,-0.9939865724537464,1.0637911000589404,0.0915605797805904,0.0,0.0,0.0
-0.7948930079475726,-0.7981064609788148,-0.8072864503001139,-1.3111841749212618,-0.36279321958612937,0.5469442336418485,-0.11285900640803848,0.0010209581396250734,1.4563520208905028,0.9481660642796512,-0.8544901056351476,-0.3258396154038928,-0.6842883324752467,0.0,0.0,0.0
-1.099093811167473,-1.2409896408495558,-1.2135004361953736,-1.3111841749212618,0.40618047434021387,0.17092971441100666,0.2963960800560585,0.9574185095237363,0.6455651482847439,0.8638120145199574,-0.6529952091193933,-0.8189343854068336,-0.7476229375573559,0.0,0.0,0.0
-1.4032946143873737,-0.9752597329271112,-1.2622071491324551,1.922120481290843,1.2743765803860854,1.0482969259496375,1.2513246151389514,1.9918893304085914,1.6449071075430048,1.9815031738358997,0.3079804511865115,0.10748609156838848,0.21822978994480874,0.0,0.0,0.0
-1.4032946143873737,-1.0638363689012593,-1.3265000102094022,-1.3111841749212618,0.05890203192186535,-0.20508480481983515,-0.08557533397709866,0.742717018396691,0.43815455296699174,0.6529268901207231,-0.6839944239679707,-0.8488189169221634,-0.7792902400984103,0.0,0.0,0.0
-0.49069220472767194,-0.5323765530563702,-0.5637528856147066,-1.3111841749212618,0.3317636652505678,0.0957268105648383,0.2145450627632391,1.2501932701515257,0.928397778263497,1.180139701118809,-0.528998349725083,-0.7143385251031795,-0.6367873786636647,0.0,0.0,0.0
-1.4032946143873737,-1.329566276823704,-1.4209910333073403,-1.3111841749212618,0.3317636652505678,0.0957268105648383,0.2145450627632391,1.2501932701515257,0.9095422695982467,1.180139701118809,-0.5444979571493718,-0.7143385251031795,-0.6367873786636647,0.0,0.0,0.0
-0.6934927402076057,0.3533898066851119,-0.4906928162090844,0.30546815318479065,-2.248019049857165,0.1959973490263961,-0.5221140928721354,-2.028884048879713,1.6071960902125044,-0.14843658259636733,-1.4434751877581213,1.5568858700618813,0.32906534883849975,0.0,0.0,0.0
-0.5920924724676387,-0.7981064609788148,-0.6777265938874774,-1.3111841749212618,0.3317636652505678,0.0957268105648383,0.24182873519417888,1.2697115875267115,0.9472532869287473,1.2012282135587327,-0.528998349725083,-0.6993962593455146,-0.6209537273931375,0.0,0.0,0.0
-0.5920924724676387,-0.886683096952963,-0.7585797373630325,-1.3111841749212618,0.3317636652505678,0.0957268105648383,0.2145450627632391,1.2501932701515257,0.928397778263497,1.180139701118809,-0.528998349725083,-0.6993962593455146,-0.6367873786636647,0.0,0.0,0.0
-0.7948930079475726,0.08765989876266728,-0.34457267739784,-1.3111841749212618,-0.759682868064242,0.6973500413341852,0.5146654595035769,-1.716590970876738,0.7398426916109949,0.29442217864202475,-0.7924916759379924,0.6752921903596536,-0.6526210299341921,0.0,0.0,0.0
-1.099093811167473,-1.2409896408495558,-1.2135004361953736,-1.3111841749212618,0.3565692682804498,0.1458620797956172,0.24182873519417888,1.055010096399666,0.8906867609329965,1.1379626762389623,-0.6374956016951046,-0.7292807908608444,-0.6526210299341921,0.0,0.0,0.0
-0.8962932756875394,-0.26664664513392555,-0.5442702004398737,-1.3111841749212618,-0.3379876165562473,0.5720118682572379,0.2691124076251187,-0.5650102457407673,0.9661087955939975,0.37877622840171854,-0.8389904982108588,-0.5798581332841957,-0.7951238913689377,0.0,0.0,0.0
-0.49069220472767194,-0.7981064609788148,-0.6611663114888695,-1.3111841749212618,-0.2883764104964832,0.5720118682572379,-0.08557533397709866,-0.6430835152415111,0.061044379661987655,0.02027151692302011,-0.8079912833622812,-0.7292807908608444,-0.8109575426394651,0.0,0.0,0.0
-1.3018943466474069,-0.7981064609788148,-1.1482334408596844,0.30546815318479065,1.4232101985653778,1.1987027336419744,1.4150266497245902,1.1526016832755959,0.8341202349372459,1.074697138919192,-0.4360007051793503,-0.6097426647995254,-0.5417854710405011,0.0,0.0,0.0
-0.6934927402076057,0.08765989876266728,-0.40789140421604575,-1.3111841749212618,0.40618047434021387,0.1458620797956172,0.2963960800560585,0.9574185095237363,0.6455651482847439,0.8638120145199574,-0.6529952091193933,-0.8189343854068336,-0.7476229375573559,0.0,0.0,0.0
0.4219102049320299,1.5048860743490386,0.6704752202109382,0.30546815318479065,0.18293004707127553,0.8728234836419114,0.5965164767963962,-1.7556276056271098,0.7775537089414953,-1.8776946026700887,0.5404745625508433,2.169518766126141,1.0099123534711731,0.0,0.0,0.0
-1.3018943466474069,1.3277328024007422,-0.6368129550203288,0.30546815318479065,1.7208774349239622,1.4995143490266478,1.7697143913268074,1.2697115875267115,1.003819812924498,1.2855822633184264,-0.25000541608788485,-0.4005509441922172,-0.30428070198259183,0.0,0.0,0.0
-1.20049407890744,-1.2409896408495558,-1.2622071491324551,-1.3111841749212618,0.40618047434021387,0.17092971441100666,0.32367975248699826,0.9574185095237363,0.6455651482847439,0.8849005269598809,-0.6529952091193933,-0.8189343854068336,-0.7476229375573559,0.0,0.0,0.0
-0.7948930079475726,-0.6209531890305183,-0.709873024425951,-1.3111841749212618,0.3813748713103319,0.17092971441100666,0.2691124076251187,1.1916383180259678,0.9472532869287473,1.1590511886788857,-0.5599975645736606,-0.6844539935878498,-0.6526210299341921,0.0,0.0,0.0
-1.20049407890744,-1.4181429127978522,-1.3430602926080102,-1.3111841749212618,0.3317636652505678,0.07065917594944883,0.2145450627632391,1.1526016832755959,0.8341202349372459,1.0957856513591153,-0.5754971719979494,-0.7442230566185093,-0.6684546812047194,0.0,0.0,0.0
-1.20049407890744,-0.7981064609788148,-1.0995267279226029,-1.3111841749212618,0.3069580622206857,0.0957268105648383,0.24182873519417888,1.172120000650782,0.8906867609329965,1.1168741637990387,-0.5599975645736606,-0.7292807908608444,-0.6684546812047194,0.0,0.0,0.0
-0.49069220472767194,-0.08949337318562914,-0.18773706174043767,-2.927836503027314,-0.5612380438251857,-0.8067080355891822,-0.7403834723196537,0.6841620662711332,0.3815880269712411,0.5896613528009529,-0.5754971719979494,-0.7442230566185093,-0.6684546812047194,0.0,0.0,0.0
0.320509937192063,2.0363458901939278,1.1312407245957292,-1.3111841749212618,0.3565692682804498,0.12079444518022774,0.24182873519417888,1.2111566354011538,0.9095422695982467,1.1590511886788857,-0.5444979571493718,-0.7143385251031795,-0.6526210299341921,0.0,0.0,0.0
0.4219102049320299,0.3533898066851119,0.4103813731269229,-1.3111841749212618,-1.6774901801698776,-0.10481426635827736,-0.6585324550268343,-0.13560726348667654,2.0031617721827586,0.8638120145199574,-0.8854893204837252,0.28679328066036697,-0.49428451722891925,0.0,0.0,0.0
-0.7948930079475726,-0.7981064609788148,-0.8559931632371954,0.30546815318479065,0.9270981379677368,1.5747172528728162,1.3604593048627105,1.2892299049018976,1.852317702860757,1.8127950743165122,-0.25000541608788485,0.45115820399468054,0.0757269285100631,0.0,0.0,0.0
-0.2878916692477382,-0.44379991708222194,-0.3854863162649886,-1.3111841749212618,-0.16434839534707302,-0.3304229778967825,-0.3311283858555568,0.8793452400229926,0.5889986222889934,0.8005464772001871,-0.6529952091193933,-0.774107588133839,-0.7159556350163013,0.0,0.0,0.0
-0.49069220472767194,0.5305430786334083,-0.3689260338663807,-1.3111841749212618,0.5054028864597421,0.29626788748795396,0.43281444221075743,1.4648947612785708,1.1358083735812492,1.4332018503978903,-0.4205010977550615,-0.5798581332841957,-0.5101181684994466,0.0,0.0,0.0
-0.49069220472767194,-0.7981064609788148,-0.6611663114888695,-1.3111841749212618,-0.784488471094124,0.5970795028726275,0.24182873519417888,0.059575910265182906,1.0603863389202484,0.6107498652408763,-0.9164885353323028,-0.5798581332841957,-0.7951238913689377,0.0,0.0,0.0
-1.7074954176072743,-1.0638363689012593,-1.2135004361953736,-1.3111841749212618,0.5302084894896242,0.2712002528725645,0.43281444221075743,0.8988635573981786,0.5889986222889934,0.8216349896401106,-0.6684948165436819,-0.8338766511644985,-0.7634565888278833,0.0,0.0,0.0
-0.7948930079475726,-1.0638363689012593,-0.9534065891113583,-1.3111841749212618,0.3565692682804498,0.1458620797956172,0.24182873519417888,1.2697115875267115,0.9472532869287473,1.222316725998656,-0.528998349725083,-0.6993962593455146,-0.6209537273931375,0.0,0.0,0.0
-1.3018943466474069,-1.329566276823704,-1.3430602926080102,-1.3111841749212618,0.40618047434021387,0.17092971441100666,0.2963960800560585,0.9574185095237363,0.6455651482847439,0.8638120145199574,-0.6529952091193933,-0.8189343854068336,-0.7476229375573559,0.0,0.0,0.0
-0.5920924724676387,-0.7981064609788148,-0.7196143670133675,-1.3111841749212618,-0.0899315862574269,0.7224176759495747,0.2145450627632391,0.41090562301852995,0.9472532869287473,0.6318383776807996,-0.7769920685137036,-0.6993962593455146,-0.7792902400984103,0.0,0.0,0.0
-0.6934927402076057,-0.886683096952963,-0.7751400197616404,-1.3111841749212618,0.3317636652505678,0.0957268105648383,0.24182873519417888,1.2697115875267115,0.9472532869287473,1.222316725998656,-0.528998349725083,-0.6993962593455146,-0.6209537273931375,0.0,0.0,0.0
-1.20049407890744,-1.329566276823704,-1.2943535796709287,-1.3111841749212618,0.40618047434021387,0.17092971441100666,0.2963960800560585,0.9574185095237363,0.6644206569499941,0.8638120145199574,-0.6529952091193933,-0.8189343854068336,-0.7476229375573559,0.0,0.0,0.0
1.9429142210315329,1.682039346297335,1.988478872288363,-1.3111841749212618,0.6294309016091524,0.4466736951802907,0.5692328043654563,0.7036803836463191,0.6267096396194937,0.7583694523203403,-0.7304932462408371,-0.774107588133839,-0.7792902400984103,0.0,0.0,0.0
-1.20049407890744,-0.7981064609788148,-1.0186735844470478,-1.3111841749212618,0.40618047434021387,0.17092971441100666,0.32367975248699826,0.9574185095237363,0.6455651482847439,0.8638120145199574,-0.6529952091193933,-0.8189343854068336,-0.7476229375573559,0.0,0.0,0.0
-0.2878916692477382,-0.000916737211480926,-0.060125473845283973,-2.927836503027314,-0.5612380438251857,-0.8067080355891822,-0.7403834723196537,0.7036803836463191,0.3815880269712411,0.5896613528009529,-0.5754971719979494,-0.7442230566185093,-0.6684546812047194,0.0,0.0,0.0
-0.8962932756875394,-0.9752597329271112,-0.9368463067127505,-1.3111841749212618,0.3565692682804498,0.12079444518022774,0.2691124076251187,1.2306749527763396,0.8906867609329965,1.1590511886788857,-0.5444979571493718,-0.7292807908608444,-0.6526210299341921,0.0,0.0,0.0
-1.4032946143873737,-0.886683096952963,-1.277793297272321,-1.3111841749212618,0.05890203192186535,-0.20508480481983515,-0.08557533397709866,0.742717018396691,0.43815455296699174,0.6529268901207231,-0.6839944239679707,-0.8488189169221634,-0.7792902400984103,0.0,0.0,0.0
0.5233104726719967,0.5305430786334083,0.5272774841759187,-1.3111841749212618,-0.710071662004478,-0.15494953558905628,-0.4129794031483762,0.31331403614260017,1.003819812924498,0.8005464772001871,-0.8699897130594364,-0.3108973496462279,-0.7001219837457741,0.0,0.0,0.0
