Min_hr,Max_hr,Mean_hr,Men_acc_sqrt,Min_acc_x,Max_acc_x,Mean_acc_x,Min_acc_y,Max_acc_y,Mean_acc_y,Min_acc_z,Max_acc_z,Mean_acc_z,Etiquetas multiclase,Etiquetas binarias,ID
0.12926105851792116,0.3509337633586533,0.2458052072619046,0.46658744252655937,-0.07116952404449123,-0.23586980980185995,-0.16217413468230388,0.4332872591619427,0.25858278996479817,0.3773828295360294,-0.7156791960833406,-0.8250744929013633,-0.803821543972224,5.0,0.0,0.0
-0.4033316332210911,-0.6971967135403948,-0.558947508091323,0.46658744252655937,0.5005646476351202,0.3340101613380328,0.4369238759348185,0.9955741127742301,0.8213780510363622,0.9499365917249275,-0.6270424213060131,-0.7567385610657072,-0.7135928656118877,5.0,0.0,0.0
0.3422981352135261,-0.030204591877364195,0.15775338344463039,0.46658744252655937,1.2022384037873706,2.199071885068591,2.1252909967648907,-0.9925115482120717,0.278682620717354,-0.661696220362341,-0.7156791960833406,0.18288050167456169,-0.06394638141746703,0.0,0.0,0.0
0.3422981352135261,0.16036458574064455,0.20894630426862706,0.46658744252655937,-1.0067345322474917,-1.1424970366153255,-1.1425163338739586,1.6181059864164054,1.4444728043655939,1.607313133497366,0.064324421957141,-0.0733792427091481,0.00823656127080181,5.0,0.0,0.0
0.5553352119091309,0.3509337633586533,0.4853880767182094,0.46658744252655937,-1.0327224491420195,-1.168400671667139,-1.1697480616292824,-0.34989800122660036,-0.5253106093848804,-0.4708449662993751,-0.3611320969740308,-0.4833948337230837,-0.424861094858812,0.0,0.0,0.0
-0.5098501715688936,-0.030204591877364195,-0.09821122067535296,0.46658744252655937,-0.30506077609524135,-0.4430988902163664,-0.38002795672489376,-0.631041428032744,-0.8268080706732182,-0.7677246948417665,-0.46749622670682367,-0.5858987314765675,-0.5511812445632827,0.0,0.0,0.0
-0.4033316332210911,-0.4113429471133817,-0.422774338699492,0.46658744252655937,1.4361296558381205,1.292444658255125,1.4444978028817967,-0.41014302125648827,-0.5856101016425479,-0.5344620509870304,-0.46749622670682367,-0.5688147485176535,-0.5331355088912153,0.0,0.0,0.0
-0.1902945565254862,-0.030204591877364195,-0.06442389293151533,0.46658744252655937,0.6305042321077592,0.46352833659709936,0.5730825147114372,0.7545940326546784,0.560080251253136,0.6954682529743061,-0.6979518411278751,-0.8079905099424493,-0.7677300726280895,5.0,0.0,0.0
0.2357795968657236,0.06507999693164018,0.17208740127534952,0.46658744252655937,2.1637913288848987,2.0436500747577107,2.206986180030862,-0.9121848548388877,-1.0680060397038886,-1.043398728488273,0.34796210124458893,0.1999644846334757,0.2789225963518105,0.0,0.0,0.0
0.12926105851792116,0.06507999693164018,0.10656046262063372,0.46658744252655937,-0.33104869298976913,-0.4690025252681797,-0.4344914122355413,-0.75153146809252,-0.9273072244359976,-0.8737531693211922,-0.41431416184042713,-0.5175627996409117,-0.47899830187501374,0.0,0.0,0.0
0.02274252017011871,-0.22077376949537295,-0.06749546818095524,0.46658744252655937,0.6045163152132313,0.46352833659709936,0.5730825147114372,0.7144306859680865,0.6203797435108037,0.7166739478701913,-0.6979518411278751,-0.7738225440246213,-0.7677300726280895,5.0,0.0,0.0
0.3422981352135261,0.2556491745496489,0.30109356175182167,0.46658744252655937,0.5525404814241758,0.4894319716489126,0.5730825147114372,0.7345123593113824,0.7409787280261388,0.6954682529743061,-0.7511339059942717,-0.7567385610657072,-0.7677300726280895,5.0,0.0,0.0
0.12926105851792116,-0.030204591877364195,0.09939345370527489,0.46658744252655937,-0.33104869298976913,-0.4690025252681797,-0.4344914122355413,-0.75153146809252,-0.9273072244359976,-0.8949588642170774,-0.41431416184042713,-0.5175627996409117,-0.47899830187501374,0.0,0.0,0.0
-0.29681309487328866,0.5415029409766621,0.19154071118846802,0.46658744252655937,0.5005646476351202,0.3340101613380328,0.4369238759348185,0.9955741127742301,0.8213780510363622,0.9499365917249275,-0.6270424213060131,-0.7567385610657072,-0.7135928656118877,5.0,0.0,0.0
0.3422981352135261,0.06507999693164018,0.21918488843342582,0.46658744252655937,0.5785283983187035,0.4894319716489126,0.5458507869561134,0.7545940326546784,0.5801800820056919,0.6954682529743061,-0.6979518411278751,-0.8079905099424493,-0.7677300726280895,5.0,0.0,0.0
0.2357795968657236,-0.030204591877364195,0.08915486954047468,0.46658744252655937,2.1637913288848987,2.0436500747577107,2.206986180030862,-0.9121848548388877,-1.0680060397038886,-1.043398728488273,0.34796210124458893,0.1999644846334757,0.2789225963518105,0.0,0.0,0.0
0.02274252017011871,0.16036458574064455,0.14034779036447134,0.46658744252655937,0.6305042321077592,0.4894319716489126,0.6003142424667609,0.7144306859680865,0.5399804205005801,0.6530568631825359,-0.6979518411278751,-0.8079905099424493,-0.7857758083001568,5.0,0.0,0.0
-0.29681309487328866,-0.22077376949537295,-0.30298290397133965,0.46658744252655937,-0.07116952404449123,-0.23586980980185995,-0.16217413468230388,0.4332872591619427,0.25858278996479817,0.3773828295360294,-0.7156791960833406,-0.8250744929013633,-0.803821543972224,5.0,0.0,0.0
0.3422981352135261,0.06507999693164018,0.20894630426862706,0.46658744252655937,0.3706250631624812,0.23039562113077955,0.3007652371581998,0.4132055858186468,0.23848295921224227,0.33497143974425925,-0.7511339059942717,-0.8592424588191913,-0.8218672796442913,5.0,0.0,0.0
0.5553352119091309,0.5415029409766621,0.5263424133774058,0.46658744252655937,-0.07116952404449123,-0.23586980980185995,-0.16217413468230388,0.45336893250523874,0.25858278996479817,0.3773828295360294,-0.7156791960833406,-0.8250744929013633,-0.803821543972224,5.0,0.0,0.0
0.12926105851792116,-0.030204591877364195,0.0727731348767961,0.46658744252655937,2.137803411990371,1.9918428046540841,2.179754452275538,-0.691286448062632,-0.8670077321783299,-0.831341779529422,0.0820517769126065,-0.056295259750234104,0.026282296942869068,0.0,0.0,0.0
0.9814093653003408,0.9226412962126795,1.0280330374525737,0.46658744252655937,0.6305042321077592,0.4894319716489126,0.6003142424667609,0.7144306859680865,0.5399804205005801,0.6742625580784211,-0.6979518411278751,-0.8079905099424493,-0.7677300726280895,5.0,0.0,0.0
-0.1902945565254862,-0.4113429471133817,-0.3367702317151773,0.46658744252655937,0.5005646476351202,0.3340101613380328,0.4369238759348185,1.015655786117526,0.8213780510363622,0.9711422866208125,-0.6270424213060131,-0.7396545781067935,-0.7135928656118877,5.0,0.0,0.0
0.6618537502569335,0.44621835216765765,0.5672967500366037,0.46658744252655937,1.0982867362092594,1.5514810087732582,1.2266439808392071,-0.711368121405928,-0.44491128637465704,-0.4920506611952602,-0.6979518411278751,-0.2442190722982879,-0.6053184515794844,0.0,0.0,0.0
0.44881667356132854,0.2556491745496489,0.34511947366045803,0.46658744252655937,-1.0067345322474917,-1.168400671667139,-1.1425163338739586,1.6181059864164054,1.4444728043655939,1.607313133497366,0.064324421957141,-0.0733792427091481,0.00823656127080181,5.0,0.0,0.0
-0.4033316332210911,-0.22077376949537295,-0.422774338699492,0.46658744252655937,0.5005646476351202,0.3340101613380328,0.4369238759348185,1.015655786117526,0.8213780510363622,0.9711422866208125,-0.6270424213060131,-0.7396545781067935,-0.7135928656118877,5.0,0.0,0.0
-0.4033316332210911,-0.6971967135403948,-0.558947508091323,0.46658744252655937,0.5005646476351202,0.3340101613380328,0.4369238759348185,0.9955741127742301,0.8213780510363622,0.9499365917249275,-0.6270424213060131,-0.7567385610657072,-0.7135928656118877,5.0,0.0,0.0
0.3422981352135261,0.06507999693164018,0.19154071118846802,0.46658744252655937,2.1637913288848987,2.0436500747577107,2.206986180030862,-0.9121848548388877,-1.0680060397038886,-1.043398728488273,0.34796210124458893,0.1999644846334757,0.2789225963518105,0.0,0.0,0.0
-0.08377601817768375,-0.030204591877364195,-0.03268428202063716,0.46658744252655937,0.6045163152132313,0.46352833659709936,0.5730825147114372,0.19230717904239103,-0.002715009818428027,0.101708795889523,-0.7334065510388061,-0.8421584758602773,-0.8218672796442913,0.0,0.0,0.0
-0.5098501715688936,-0.6019121247313904,-0.558947508091323,0.46658744252655937,0.5005646476351202,0.3340101613380328,0.4369238759348185,0.9955741127742301,0.8213780510363622,0.9711422866208125,-0.6270424213060131,-0.7396545781067935,-0.7135928656118877,5.0,0.0,0.0
-0.08377601817768375,0.2556491745496489,0.055367541796637054,0.46658744252655937,0.5005646476351202,0.3340101613380328,0.4369238759348185,0.9955741127742301,0.8213780510363622,0.9499365917249275,-0.6270424213060131,-0.7567385610657072,-0.7135928656118877,5.0,0.0,0.0
0.2357795968657236,0.2556491745496489,0.1987077201038283,0.46658744252655937,0.39661298005700907,0.25629925618259286,0.32799696491352354,0.8148390526845662,0.6404795742633596,0.7590853376619614,-0.6802244861724096,-0.8079905099424493,-0.7677300726280895,5.0,0.0,0.0
0.7683722886047359,0.6367875297856664,0.6870881847647561,0.46658744252655937,1.1762504868928427,1.033408307736992,1.1721805253285595,0.3127972191021669,0.11788397469690713,0.22894296526483365,-0.6447697762614786,-0.7738225440246213,-0.731638601283955,5.0,0.0,0.0
-0.616368709916696,-0.7924813023493992,-0.7299318636434721,0.46658744252655937,0.5005646476351202,0.3340101613380328,0.4369238759348185,0.9955741127742301,0.8213780510363622,0.9499365917249275,-0.6270424213060131,-0.7567385610657072,-0.7135928656118877,5.0,0.0,0.0
0.2357795968657236,0.06507999693164018,0.10656046262063372,0.46658744252655937,2.137803411990371,1.9918428046540841,2.179754452275538,-0.691286448062632,-0.8670077321783299,-0.831341779529422,0.0820517769126065,-0.056295259750234104,0.00823656127080181,0.0,0.0,0.0
-0.1902945565254862,-0.31605835830437734,-0.269195576227502,0.46658744252655937,0.5005646476351202,0.3340101613380328,0.4369238759348185,0.9955741127742301,0.8213780510363622,0.9711422866208125,-0.6270424213060131,-0.7567385610657072,-0.7135928656118877,5.0,0.0,0.0
-0.5098501715688936,-0.6971967135403948,-0.6275460219954787,0.46658744252655937,0.5005646476351202,0.3340101613380328,0.4369238759348185,0.9955741127742301,0.8213780510363622,0.9499365917249275,-0.6270424213060131,-0.7567385610657072,-0.7135928656118877,5.0,0.0,0.0
-0.1902945565254862,-0.4113429471133817,-0.30298290397133965,0.46658744252655937,0.5005646476351202,0.3340101613380328,0.4369238759348185,1.015655786117526,0.8213780510363622,0.9711422866208125,-0.6270424213060131,-0.7396545781067935,-0.7135928656118877,5.0,0.0,0.0
-0.616368709916696,-0.4113429471133817,-0.6101404289153196,0.46658744252655937,1.4361296558381205,1.292444658255125,1.4172660751264732,-0.41014302125648827,-0.5856101016425479,-0.5344620509870304,-0.46749622670682367,-0.5858987314765675,-0.5331355088912153,0.0,0.0,0.0
-0.29681309487328866,-0.22077376949537295,-0.25178998314734297,0.46658744252655937,-0.07116952404449123,-0.23586980980185995,-0.16217413468230388,0.4332872591619427,0.25858278996479817,0.3773828295360294,-0.7156791960833406,-0.8250744929013633,-0.803821543972224,5.0,0.0,0.0
-0.4033316332210911,-0.5066275359223861,-0.45656166644332963,0.46658744252655937,0.5005646476351202,0.3340101613380328,0.4369238759348185,0.9955741127742301,0.8213780510363622,0.9711422866208125,-0.6270424213060131,-0.7567385610657072,-0.7135928656118877,5.0,0.0,0.0
-0.5098501715688936,-0.6019121247313904,-0.5415419150111639,0.46658744252655937,1.4361296558381205,1.292444658255125,1.4172660751264732,-0.41014302125648827,-0.5856101016425479,-0.5344620509870304,-0.44976887175135816,-0.5858987314765675,-0.5331355088912153,0.0,0.0,0.0
0.2357795968657236,-0.030204591877364195,0.14034779036447134,0.46658744252655937,-0.357036609884297,-0.494906160319993,-0.4344914122355413,0.9955741127742301,0.8012782202838065,0.9499365917249275,-0.5738603564396167,-0.6884026292300515,-0.6414099229236189,0.0,0.0,0.0
0.12926105851792116,-0.12548918068636858,0.004174620972640385,0.46658744252655937,0.6045163152132313,0.46352833659709936,0.5458507869561134,0.7545940326546784,0.560080251253136,0.6954682529743061,-0.6979518411278751,-0.8079905099424493,-0.7677300726280895,5.0,0.0,0.0
0.02274252017011871,0.16036458574064455,0.02158021405279943,0.46658744252655937,-0.07116952404449123,-0.23586980980185995,-0.16217413468230388,0.4332872591619427,0.25858278996479817,0.3773828295360294,-0.7334065510388061,-0.8250744929013633,-0.803821543972224,5.0,0.0,0.0
0.5553352119091309,0.5415029409766621,0.5335094222927661,0.46658744252655937,0.5265525645296479,0.5153356067007259,0.5458507869561134,0.6943490126247905,0.7208788972735829,0.6954682529743061,-0.8220433258161337,-0.6713186462711375,-0.7677300726280895,0.0,0.0,0.0
-0.4033316332210911,-0.22077376949537295,-0.3203884970514987,0.46658744252655937,-0.30506077609524135,-0.4430988902163664,-0.38002795672489376,-0.631041428032744,-0.8268080706732182,-0.7677246948417665,-0.4852235816622892,-0.5858987314765675,-0.5511812445632827,0.0,0.0,0.0
-0.08377601817768375,0.06507999693164018,0.01134162988799922,0.46658744252655937,-0.2530849423061857,-0.417195255164553,-0.35279622896956997,-0.028591227733864747,-0.22381314809654254,-0.13155384796521327,-0.6624971312169441,-0.7738225440246213,-0.7496843369560222,2.0,1.0,0.0
-0.616368709916696,2.066056361920732,-0.115616813755512,0.46658744252655937,0.5525404814241758,0.4117210664934727,0.49138733144546604,0.27263387241557496,0.09778414394435127,0.20773727036894857,-0.7334065510388061,-0.8421584758602773,-0.8218672796442913,2.0,1.0,0.0
-0.4033316332210911,-0.5066275359223861,-0.47396725952348867,0.46658744252655937,-0.33104869298976913,-0.4690025252681797,-0.40725968448021754,0.9152474194010463,0.7208788972735829,0.8651138121413869,-0.5915877113950823,-0.7225705951478795,-0.6775013942677535,2.0,1.0,0.0
-0.4033316332210911,0.16036458574064455,-0.16988130982894858,0.46658744252655937,-0.30506077609524135,-0.4690025252681797,-0.40725968448021754,0.9152474194010463,0.7208788972735829,0.8651138121413869,-0.5915877113950823,-0.7054866121889655,-0.6775013942677535,1.0,1.0,0.0
0.3422981352135261,0.2556491745496489,0.29392655283646135,0.46658744252655937,-0.33104869298976913,-0.494906160319993,-0.4344914122355413,0.9554107660876382,0.8012782202838065,0.9287308968290423,-0.5738603564396167,-0.6884026292300515,-0.6594556585956861,2.0,1.0,0.0
0.44881667356132854,0.2556491745496489,0.3625250667406171,0.46658744252655937,1.1762504868928427,1.1888301180478718,1.2266439808392071,-0.39006134791319225,-0.26401280960165424,-0.4072278816117197,-0.6270424213060131,-0.6371506803533095,-0.6233641872515516,1.0,1.0,0.0
0.7683722886047359,0.5415029409766621,0.6696825916845971,0.46658744252655937,-0.2530849423061857,-0.417195255164553,-0.35279622896956997,-0.028591227733864747,-0.20371331734398665,-0.13155384796521327,-0.6624971312169441,-0.7909065269835353,-0.7496843369560222,2.0,1.0,0.0
0.02274252017011871,-0.030204591877364195,0.004174620972640385,0.46658744252655937,0.5785283983187035,0.4117210664934727,0.5186190592007898,0.3529605657887588,0.17818346695457468,0.2713543550566039,-0.7334065510388061,-0.8592424588191913,-0.8218672796442913,3.0,1.0,0.0
0.5553352119091309,0.2556491745496489,0.4311235806447728,0.46658744252655937,0.3706250631624812,0.23039562113077955,0.3007652371581998,0.3127972191021669,0.23848295921224227,0.33497143974425925,-0.7334065510388061,-0.8421584758602773,-0.8218672796442913,2.0,1.0,0.0
0.02274252017011871,-0.030204591877364195,0.02158021405279943,0.46658744252655937,1.2022384037873706,1.0593119427888054,1.1721805253285595,0.3127972191021669,0.11788397469690713,0.22894296526483365,-0.6447697762614786,-0.7738225440246213,-0.731638601283955,2.0,1.0,0.0
0.3422981352135261,-0.030204591877364195,0.15775338344463039,0.46658744252655937,-0.33104869298976913,-0.4690025252681797,-0.40725968448021754,0.9152474194010463,0.7208788972735829,0.8651138121413869,-0.5915877113950823,-0.7054866121889655,-0.6775013942677535,2.0,1.0,0.0
-0.1902945565254862,-0.12548918068636858,-0.09821122067535296,0.46658744252655937,0.5525404814241758,0.38581743144165936,0.49138733144546604,0.3730422391320548,0.17818346695457468,0.292560049952489,-0.7334065510388061,-0.8592424588191913,-0.8218672796442913,1.0,1.0,0.0
0.5553352119091309,0.6367875297856664,0.6184896708606005,0.46658744252655937,1.2022384037873706,1.0593119427888054,1.1721805253285595,0.3127972191021669,0.11788397469690713,0.22894296526483365,-0.6447697762614786,-0.7567385610657072,-0.731638601283955,2.0,1.0,0.0
0.7683722886047359,0.9226412962126795,0.9082416027244214,0.46658744252655937,-0.2530849423061857,-0.417195255164553,-0.35279622896956997,-0.028591227733864747,-0.20371331734398665,-0.13155384796521327,-0.6624971312169441,-0.7738225440246213,-0.7496843369560222,2.0,1.0,0.0
-1.788072631742523,-1.745327190439443,-1.7671004395376442,-1.4541626572016115,-1.1366741167201304,-1.272015211874392,-1.2514432448952535,0.6943490126247905,0.5399804205005801,0.6530568631825359,-0.3611320969740308,-0.4833948337230837,-0.44290683053087926,0.0,0.0,10.0
2.153113287126168,1.6849180066847145,1.942338603369155,-1.4541626572016115,-0.5649399450405191,-0.7021352407344994,-0.6795769620334549,0.1320621590125031,-0.022814840570983905,0.05929740609775276,-0.6093150663505478,-0.7225705951478795,-0.6775013942677535,5.0,0.0,10.0
0.8748908269525384,1.303779651448697,1.0997031266061694,0.46658744252655937,1.8259484092560376,1.7069028190841378,1.852973719211653,0.3127972191021669,0.13798380544946298,0.22894296526483365,-0.43204151679589264,-0.5346467825998257,-0.4970440375470808,5.0,0.0,10.0
-2.1076282467859304,-1.8406117792484473,-1.9923492911632297,0.46658744252655937,1.8259484092560376,1.7069028190841378,1.852973719211653,0.33287889244546287,0.15808363620201885,0.25014866016071874,-0.41431416184042713,-0.5346467825998257,-0.4970440375470808,5.0,0.0,10.0
-2.1076282467859304,-2.031180956866456,-2.074257964481624,0.46658744252655937,0.7864317334749259,0.6448537819597925,0.7364728812433796,-0.16916294113693653,-0.3243123018593218,-0.2587880173405239,-0.6624971312169441,-0.7738225440246213,-0.7496843369560222,5.0,0.0,10.0
-1.788072631742523,-1.8406117792484473,-1.808054776196842,-1.4541626572016115,-1.1366741167201304,-1.272015211874392,-1.2786749726505773,0.7144306859680865,0.5399804205005801,0.6530568631825359,-0.3611320969740308,-0.4833948337230837,-0.424861094858812,0.0,0.0,10.0
-1.788072631742523,-1.8406117792484473,-1.804983200947402,-1.4541626572016115,-1.1366741167201304,-1.272015211874392,-1.2514432448952535,0.6943490126247905,0.5399804205005801,0.6530568631825359,-0.3611320969740308,-0.4833948337230837,-0.44290683053087926,0.0,0.0,10.0
-2.1076282467859304,-1.8406117792484473,-1.9780152733325107,0.46658744252655937,1.8259484092560376,1.6809991840323246,1.852973719211653,0.3127972191021669,0.13798380544946298,0.22894296526483365,-0.43204151679589264,-0.5517307655587395,-0.4970440375470808,5.0,0.0,10.0
-2.0011097084381277,-2.1264655456754604,-2.094735132811223,0.46658744252655937,0.8384075672639814,0.696661052063419,0.7909363367540272,-0.1490812677936406,-0.3042124711067659,-0.2375823224446388,-0.6624971312169441,-0.7738225440246213,-0.7496843369560222,5.0,0.0,10.0
-2.2141467851337326,-2.1264655456754604,-2.1561666378000193,-1.4541626572016115,-0.5389520281459914,-0.7021352407344994,-0.6523452342781312,0.1320621590125031,-0.04291467132353975,0.03809171120186766,-0.6093150663505478,-0.7225705951478795,-0.6955471299398207,5.0,0.0,10.0
-2.1076282467859304,-2.031180956866456,-2.1121407258913822,0.46658744252655937,1.8259484092560376,1.7069028190841378,1.852973719211653,0.33287889244546287,0.15808363620201885,0.25014866016071874,-0.41431416184042713,-0.5346467825998257,-0.4970440375470808,5.0,0.0,10.0
1.0879279036481433,1.2084950626396926,1.3177849693163948,0.46658744252655937,1.8259484092560376,1.7069028190841378,1.852973719211653,0.3127972191021669,0.11788397469690713,0.22894296526483365,-0.43204151679589264,-0.5346467825998257,-0.4970440375470808,5.0,0.0,10.0
-1.5750355550469182,-1.745327190439443,-1.6851917662192497,-1.4541626572016115,-1.1366741167201304,-1.272015211874392,-1.2514432448952535,0.7144306859680865,0.5399804205005801,0.6530568631825359,-0.3611320969740308,-0.4833948337230837,-0.424861094858812,0.0,0.0,10.0
-2.2141467851337326,-2.317034723293469,-2.29950681610721,-1.4541626572016115,-0.5649399450405191,-0.7021352407344994,-0.6523452342781312,0.1320621590125031,-0.022814840570983905,0.05929740609775276,-0.6093150663505478,-0.7225705951478795,-0.6775013942677535,5.0,0.0,10.0
-1.4685170166991157,-1.4594734240124299,-1.500897251252862,0.46658744252655937,-2.332118293868409,-0.002737094335540181,-0.8157356008100736,-1.7756968086006149,0.9620768663042533,0.03809171120186766,-1.9565940429659248,1.0712476155380888,-0.5511812445632827,0.0,0.0,10.0
-1.8945911700903255,-1.9358963680574517,-1.9483233792545926,-1.4541626572016115,-0.7468553633022138,-0.8834606860971925,-0.8701990563207211,0.33287889244546287,0.17818346695457468,0.2713543550566039,-0.5561330014841512,-0.6713186462711375,-0.6414099229236189,0.0,0.0,10.0
-2.0011097084381277,-1.9358963680574517,-1.971872122833631,0.46658744252655937,0.8384075672639814,0.696661052063419,0.818168064509351,-0.1490812677936406,-0.3042124711067659,-0.2375823224446388,-0.6624971312169441,-0.7738225440246213,-0.731638601283955,5.0,0.0,10.0
-1.5750355550469182,-1.2689042463944211,-1.459942914593664,-1.4541626572016115,-0.8508070308803247,-0.9870752263044458,-0.9791259673420161,0.3127972191021669,0.15808363620201885,0.25014866016071874,-0.5206782915732202,-0.6371506803533095,-0.6053184515794844,5.0,0.0,10.0
-1.8945911700903255,-1.745327190439443,-1.9042974673459556,-1.4541626572016115,-0.5649399450405191,-0.7021352407344994,-0.6523452342781312,0.1320621590125031,-0.022814840570983905,0.05929740609775276,-0.6093150663505478,-0.7225705951478795,-0.6955471299398207,5.0,0.0,10.0
-1.3619984783513133,-1.3641888352034255,-1.3370799046160726,-1.4541626572016115,-1.9942753742395478,-0.9352679562008192,-1.6599191612251096,-1.0929199149285513,1.2032748353349236,-0.11034815306932813,-0.7688612609497372,0.866239820031121,0.31501406769594503,0.0,0.0,10.0
-1.6815540933947206,-1.8406117792484473,-1.787577607867243,-1.4541626572016115,-1.1366741167201304,-1.272015211874392,-1.2514432448952535,0.7144306859680865,0.5399804205005801,0.6530568631825359,-0.3611320969740308,-0.4833948337230837,-0.424861094858812,0.0,0.0,10.0
-2.2141467851337326,-1.9358963680574517,-2.0261366189070675,0.46658744252655937,1.79996049236151,1.7587100891877645,1.852973719211653,0.15214383235579906,0.25858278996479817,0.25014866016071874,-0.4852235816622892,-0.4833948337230837,-0.4970440375470808,2.0,1.0,10.0
-2.0011097084381277,-2.031180956866456,-2.0128264594928287,0.46658744252655937,1.8519363261505652,1.7069028190841378,1.852973719211653,0.3127972191021669,0.13798380544946298,0.22894296526483365,-0.41431416184042713,-0.5346467825998257,-0.4970440375470808,2.0,1.0,10.0
-2.2141467851337326,-2.1264655456754604,-2.1971209744592164,0.46658744252655937,0.9163713179475648,0.774371957218859,0.8726315200199983,-0.1490812677936406,-0.3042124711067659,-0.2375823224446388,-0.6447697762614786,-0.7567385610657072,-0.731638601283955,2.0,1.0,10.0
-2.0011097084381277,-2.031180956866456,-2.0435422119872264,0.46658744252655937,1.4621175727326483,1.3442519283587515,1.4717295306371205,-0.028591227733864747,-0.18361348659143079,-0.11034815306932813,-0.5561330014841512,-0.6542346633122235,-0.6233641872515516,1.0,1.0,10.0
-2.0011097084381277,-2.031180956866456,-2.0097548842433888,0.46658744252655937,1.4621175727326483,1.3183482933069384,1.4444978028817967,-0.028591227733864747,-0.20371331734398665,-0.11034815306932813,-0.5384056465286857,-0.6542346633122235,-0.6233641872515516,2.0,1.0,10.0
-1.8945911700903255,-1.8406117792484473,-1.9411563703392332,0.46658744252655937,1.8519363261505652,1.7069028190841378,1.880205446966977,0.3127972191021669,0.13798380544946298,0.25014866016071874,-0.41431416184042713,-0.5346467825998257,-0.4970440375470808,2.0,1.0,10.0
-1.8945911700903255,-1.9358963680574517,-1.9411563703392332,-1.4541626572016115,-0.8767949477748526,-1.012978861356259,-0.9791259673420161,0.07181713898261517,-0.0630145020760956,-0.00431967858990257,-0.5029509366177547,-0.6200666973943955,-0.5872727159074171,2.0,1.0,10.0
-2.3206653234815353,-1.8406117792484473,-2.0609478050673853,-1.4541626572016115,-0.7988311970912695,-0.9352679562008192,-0.9246625118313686,0.4332872591619427,0.278682620717354,0.3773828295360294,-0.5384056465286857,-0.6542346633122235,-0.6053184515794844,3.0,1.0,10.0
-1.8945911700903255,-1.745327190439443,-1.7537902801234055,-1.4541626572016115,-1.1366741167201304,-1.272015211874392,-1.2786749726505773,0.6943490126247905,0.5399804205005801,0.6530568631825359,-0.3611320969740308,-0.4833948337230837,-0.424861094858812,2.0,1.0,10.0
-1.6815540933947206,-1.5547580128214342,-1.7025973592994088,0.46658744252655937,1.4621175727326483,1.3183482933069384,1.4444978028817967,-0.028591227733864747,-0.20371331734398665,-0.11034815306932813,-0.5384056465286857,-0.6542346633122235,-0.6233641872515516,2.0,1.0,10.0
-2.3206653234815353,-2.2217501344844646,-2.3169124091873687,-1.4541626572016115,-0.8767949477748526,-1.012978861356259,-0.9791259673420161,0.07181713898261517,-0.0630145020760956,-0.00431967858990257,-0.5029509366177547,-0.6200666973943955,-0.5872727159074171,2.0,1.0,10.0
-0.08377601817768375,0.3509337633586533,0.17515897652478943,0.46658744252655937,1.8519363261505652,1.7069028190841378,1.880205446966977,0.3127972191021669,0.13798380544946298,0.25014866016071874,-0.41431416184042713,-0.5346467825998257,-0.4970440375470808,3.0,1.0,10.0
-1.8945911700903255,-1.8406117792484473,-1.8725578564350773,0.46658744252655937,0.2146975617953145,0.049070175768086435,0.13737487062625733,-0.9724298748687757,-1.1484053627141122,-1.1282215080718137,2.4043352760785863,2.1646225249085838,2.372227934311611,2.0,1.0,10.0
-1.6815540933947206,-1.745327190439443,-1.7537902801234055,-1.4541626572016115,-1.1366741167201304,-1.272015211874392,-1.2514432448952535,0.5939406459083105,0.43948126673780086,0.5470283887031103,-0.3788594519294963,-0.5004788166819977,-0.4609525662029465,2.0,1.0,10.0
-1.788072631742523,-1.8406117792484473,-1.8694862811856374,-1.4541626572016115,-0.8508070308803247,-0.9870752263044458,-0.9518942395866924,0.33287889244546287,0.15808363620201885,0.25014866016071874,-0.5206782915732202,-0.6371506803533095,-0.6053184515794844,3.0,1.0,10.0
-2.0011097084381277,-2.1264655456754604,-2.094735132811223,0.46658744252655937,0.890383401053037,0.774371957218859,0.8726315200199983,-0.1490812677936406,-0.3042124711067659,-0.2375823224446388,-0.6624971312169441,-0.7567385610657072,-0.731638601283955,2.0,1.0,10.0
-1.8945911700903255,-1.9358963680574517,-1.9073690425953955,-1.4541626572016115,-0.8508070308803247,-0.9870752263044458,-0.9518942395866924,0.3127972191021669,0.15808363620201885,0.25014866016071874,-0.5206782915732202,-0.6371506803533095,-0.6053184515794844,3.0,1.0,10.0
-1.8945911700903255,-1.9358963680574517,-1.9339893614238735,0.46658744252655937,-0.07116952404449123,-0.1322552695946067,-0.13494240692698012,1.9594944332524369,1.9871682346846022,1.9890156416232978,0.0820517769126065,0.04620863800324989,0.026282296942869068,2.0,1.0,10.0
-1.6815540933947206,-1.8406117792484473,-1.787577607867243,0.46658744252655937,-0.045181607149963415,-0.1322552695946067,-0.10771067917165636,1.9594944332524369,1.826369588664155,1.9890156416232978,0.0820517769126065,-0.022127293832406105,0.00823656127080181,2.0,1.0,10.0
-1.8945911700903255,-1.9358963680574517,-1.9309177861744335,-1.4541626572016115,-1.5005049532435195,0.5412392417525391,-0.9518942395866924,-0.08883624776375268,1.4846724658707056,0.03809171120186766,-0.7334065510388061,-0.3467229700517717,-0.5692269802353499,2.0,1.0,10.0
-1.788072631742523,-1.9358963680574517,-1.8899634495152364,0.46658744252655937,0.2146975617953145,0.049070175768086435,0.13737487062625733,-0.9925115482120717,-1.168505193466668,-1.1282215080718137,2.3866079211231206,2.1646225249085838,2.3541821986395433,2.0,1.0,10.0
-2.2141467851337326,-2.2217501344844646,-2.217598142788815,-1.4541626572016115,-0.7988311970912695,-0.9352679562008192,-0.9246625118313686,0.4332872591619427,0.278682620717354,0.3773828295360294,-0.5384056465286857,-0.6542346633122235,-0.6053184515794844,2.0,1.0,10.0
1.6205205953871555,1.303779651448697,1.4549819971247062,-1.4541626572016115,-1.0067345322474917,-1.168400671667139,-1.1425163338739586,-0.8720215081522957,-1.0479062089513327,-1.0009873386965027,-0.042039707775651865,-0.1758831404626319,-0.1180835884336688,5.0,0.0,22.0
1.4074835186915506,2.1613409507297363,1.966911205364673,-1.4541626572016115,-1.0067345322474917,-1.1424970366153255,-1.1425163338739586,-0.8720215081522957,-1.0479062089513327,-1.022193033592388,-0.042039707775651865,-0.1758831404626319,-0.10003785276160154,5.0,0.0,22.0
2.68570597886518,2.256625539538741,2.4716734046892794,-1.4541626572016115,-0.6688916126186304,-0.8057497809417526,-0.7612721452994262,0.1320621590125031,-0.04291467132353975,0.05929740609775276,-0.5738603564396167,-0.7054866121889655,-0.6594556585956861,0.0,0.0,22.0
1.514002057039353,1.2084950626396926,1.416075377298469,2.38733754225473,-1.812359955977853,2.66533731600123,0.8998632477753221,0.5336956258784227,2.5097638342510544,1.5861074386014808,-0.8220433258161337,2.010866678278358,0.45937995307248297,5.0,0.0,22.0
1.727039133734958,1.4943488290667057,1.6085607595966962,0.46658744252655937,-1.188649950509186,-1.3238224819780184,-1.3331384281612246,-1.2535733016749193,-1.4298029932498941,-1.40389554171832,0.6847818453984333,0.5245601608528414,0.6398373097931553,5.0,0.0,22.0
2.68570597886518,2.256625539538741,2.533104909678076,-1.4541626572016115,-0.6948795295131582,-0.8057497809417526,-0.78850387305475,0.15214383235579906,-0.022814840570983905,0.05929740609775276,-0.5915877113950823,-0.6884026292300515,-0.6594556585956861,0.0,0.0,22.0
1.3009649803437482,1.1132104738306883,1.3249519782317551,-1.4541626572016115,-1.0327224491420195,-1.168400671667139,-1.1425163338739586,-1.0929199149285513,-1.2690043472294472,-1.2554556774471242,0.20614326160086507,0.06329262096216379,0.15260244664733977,5.0,0.0,22.0
1.3009649803437482,2.1613409507297363,1.7344953448237284,0.46658744252655937,-1.8643357897669086,-1.1424970366153255,-1.3059067004059008,-1.394145015077991,-0.8067082399206624,-1.213044287655354,-0.23704061228577225,0.917491768907863,0.31501406769594503,5.0,0.0,22.0
2.2596318254739702,1.7802025954937188,2.030390427186429,0.46658744252655937,-1.214637867403714,-1.3497261170298318,-1.3331384281612246,-1.2334916283316233,-1.4097031624973384,-1.40389554171832,0.6847818453984333,0.5416441438117554,0.6398373097931553,2.0,1.0,22.0
1.727039133734958,3.11418683881978,2.6662065038204674,0.46658744252655937,-1.2926016180872972,-1.4015333871334585,-1.414833611427196,-1.0326748948986637,-1.2288046857243355,-1.191838592759469,0.34796210124458893,0.2170484675923897,0.29696833202387773,2.0,1.0,22.0
1.514002057039353,1.2084950626396926,1.3863834832205504,-1.4541626572016115,-0.9287707815639082,-1.0647861314598857,-1.0335894228526636,-1.1531649349584394,-1.3293038394871148,-1.2978670672388943,0.18841590664539956,0.04620863800324989,0.1345567109752726,3.0,1.0,22.0
1.727039133734958,1.58963341787571,1.6935410081645306,-1.4541626572016115,-1.318589534981825,-1.453340657237085,-1.4692970669378436,-0.8720215081522957,-1.0479062089513327,-1.022193033592388,0.17068855168993405,0.04620863800324989,0.11651097530320537,2.0,1.0,22.0
1.4074835186915506,1.58963341787571,1.5502008298573393,0.46658744252655937,-1.2926016180872972,-1.4015333871334585,-1.414833611427196,-1.0527565682419597,-1.2288046857243355,-1.191838592759469,0.34796210124458893,0.2170484675923897,0.29696833202387773,3.0,1.0,22.0
1.1944464419959457,1.3990642402577014,1.4549819971247062,-1.4541626572016115,-1.0587103660365473,-1.1943043067189523,-1.1697480616292824,-0.4503063679430802,-0.6258097631476597,-0.5768734407788007,-0.29022267715216876,-0.41505890188742767,-0.37072388784261023,2.0,1.0,22.0
0.8748908269525384,1.017925885021684,0.9256471958045804,-1.4541626572016115,-0.9807466153529638,-1.1165934015635124,-1.1152846061186348,-1.0527565682419597,-1.2288046857243355,-1.213044287655354,0.11750648682353752,-0.022127293832406105,0.062373768287003584,2.0,1.0,22.0
1.3009649803437482,2.066056361920732,1.6249424942603747,-1.4541626572016115,-1.0067345322474917,-1.1424970366153255,-1.1425163338739586,-1.0527565682419597,-1.2288046857243355,-1.213044287655354,0.13523384177900302,0.01204067208542189,0.08041950395907084,1.0,1.0,22.0
2.153113287126168,1.8754871843027232,2.0181041261886694,0.46658744252655937,-1.214637867403714,-1.3238224819780184,-1.3331384281612246,-1.2334916283316233,-1.4298029932498941,-1.40389554171832,0.6847818453984333,0.5245601608528414,0.6398373097931553,2.0,1.0,22.0
1.514002057039353,1.4943488290667057,1.506174917948703,-1.4541626572016115,-0.954758698458436,-1.090689766511699,-1.0608211506079874,-1.0527565682419597,-1.2288046857243355,-1.213044287655354,0.09977913186807201,-0.0392112767913201,0.04432803261493633,3.0,1.0,22.0
1.0879279036481433,0.9226412962126795,0.9430527888847395,-1.4541626572016115,-0.954758698458436,-1.090689766511699,-1.0608211506079874,-1.0527565682419597,-1.2489045164768915,-1.213044287655354,0.09977913186807201,-0.022127293832406105,0.04432803261493633,3.0,1.0,22.0
1.1944464419959457,1.1132104738306883,1.2328047207485604,-1.4541626572016115,-0.9287707815639082,-1.0647861314598857,-1.0335894228526636,-1.1531649349584394,-1.3293038394871148,-1.2978670672388943,0.20614326160086507,0.06329262096216379,0.1345567109752726,3.0,1.0,22.0
1.4074835186915506,1.303779651448697,1.4068606515501494,-1.4541626572016115,-1.2926016180872972,-1.168400671667139,-1.2514432448952535,-1.1330832616151434,-1.1886050242192239,-1.213044287655354,0.17068855168993405,0.35372033126370156,0.1886939179914743,3.0,1.0,22.0
-0.7228872482644985,-0.8877658911584035,-0.8046735280465068,-1.4541626572016115,0.26667339558437003,0.10087744587171303,0.19183832613690482,1.216472519550486,1.022376358561921,1.1831992355796639,-0.5384056465286857,-0.6542346633122235,-0.6053184515794844,0.0,0.0,26.0
-0.616368709916696,-0.7924813023493992,-0.7463135983071506,-1.4541626572016115,0.26667339558437003,0.12678108092352636,0.21907005389222856,1.3369625596102617,1.142975343077256,1.3104334049549744,-0.4852235816622892,-0.6029827144354815,-0.5511812445632827,0.0,0.0,26.0
-0.616368709916696,-0.31605835830437734,-0.37158141787549537,0.46658744252655937,1.410141738943593,1.2665410232033116,1.3900343473711496,1.236554192893782,1.0826758508195884,1.2256106253714338,-0.3788594519294963,-0.4833948337230837,-0.44290683053087926,0.0,0.0,26.0
-0.616368709916696,-0.5066275359223861,-0.6275460219954787,0.46658744252655937,1.410141738943593,1.2406373881514985,1.3900343473711496,1.216472519550486,1.0625760200670324,1.2044049304755489,-0.3788594519294963,-0.4833948337230837,-0.44290683053087926,0.0,0.0,26.0
-0.4033316332210911,-0.12548918068636858,-0.3367702317151773,-1.4541626572016115,0.34463714626795344,0.20449198607896626,0.3007652371581998,0.9152474194010463,0.7409787280261388,0.8651138121413869,-0.6447697762614786,-0.7567385610657072,-0.731638601283955,5.0,0.0,26.0
-0.8294057866123009,-0.8877658911584035,-0.8149121122113063,-1.4541626572016115,0.26667339558437003,0.12678108092352636,0.21907005389222856,1.3369625596102617,1.1630751738298117,1.3104334049549744,-0.46749622670682367,-0.5858987314765675,-0.5511812445632827,0.0,0.0,26.0
-1.1489614016557084,0.7320721185946708,-0.18319146924318724,-1.4541626572016115,0.26667339558437003,0.10087744587171303,0.19183832613690482,1.19639084620719,1.022376358561921,1.1831992355796639,-0.5384056465286857,-0.6542346633122235,-0.6053184515794844,2.0,1.0,26.0
-0.08377601817768375,-0.31605835830437734,-0.23438439006718392,-1.4541626572016115,0.24068547868984227,0.12678108092352636,0.19183832613690482,1.236554192893782,1.0625760200670324,1.2256106253714338,-0.5206782915732202,-0.6371506803533095,-0.5872727159074171,3.0,1.0,26.0
-0.29681309487328866,-0.5066275359223861,-0.422774338699492,-1.4541626572016115,0.31864922937342566,0.15268471597533964,0.2463017816475523,0.212388852385687,0.03748465168668369,0.1229144907854081,-0.7156791960833406,-0.8250744929013633,-0.803821543972224,2.0,1.0,26.0
-0.4033316332210911,-0.5066275359223861,-0.4391560733631706,-1.4541626572016115,0.6045163152132313,0.437624701545286,0.5458507869561134,0.9754924394309342,0.8012782202838065,0.9287308968290423,-0.6093150663505478,-0.7396545781067935,-0.6955471299398207,2.0,1.0,26.0
-0.1902945565254862,0.3509337633586533,0.02158021405279943,-1.4541626572016115,0.5265525645296479,0.437624701545286,0.49138733144546604,-0.20932628782352852,-0.0630145020760956,-0.089142458173443,-0.7688612609497372,-0.7738225440246213,-0.7677300726280895,2.0,1.0,26.0
-0.08377601817768375,-0.31605835830437734,-0.22209808906942424,-1.4541626572016115,0.3706250631624812,0.20449198607896626,0.3007652371581998,0.9353290927443422,0.7409787280261388,0.8863195070372721,-0.6447697762614786,-0.7567385610657072,-0.7135928656118877,2.0,1.0,26.0
-0.08377601817768375,-0.22077376949537295,-0.12892697316975066,-1.4541626572016115,0.34463714626795344,0.20449198607896626,0.3007652371581998,1.035737459460822,0.861577712541474,1.0135536764125828,-0.6093150663505478,-0.7225705951478795,-0.6775013942677535,2.0,1.0,26.0
-0.08377601817768375,-0.31605835830437734,-0.18319146924318724,-1.4541626572016115,0.5785283983187035,0.437624701545286,0.5458507869561134,-0.008509554390568752,-0.20371331734398665,-0.11034815306932813,-0.6979518411278751,-0.8079905099424493,-0.7677300726280895,2.0,1.0,26.0
-0.5098501715688936,-0.6019121247313904,-0.5732815259220421,-1.4541626572016115,0.26667339558437003,0.10087744587171303,0.19183832613690482,1.216472519550486,1.022376358561921,1.1831992355796639,-0.5384056465286857,-0.6542346633122235,-0.6053184515794844,2.0,1.0,26.0
-0.1902945565254862,-0.5066275359223861,-0.3541758247953363,-1.4541626572016115,-0.019193690255435606,-0.15815890464642005,-0.08047895141633266,0.8349207260278623,0.6605794050159154,0.8014967274537317,-0.6270424213060131,-0.7567385610657072,-0.7135928656118877,2.0,1.0,26.0
-0.1902945565254862,-0.030204591877364195,-0.09821122067535296,-1.4541626572016115,0.5265525645296479,0.437624701545286,0.5186190592007898,-0.008509554390568752,-0.12331399433376318,-0.089142458173443,-0.7156791960833406,-0.7909065269835353,-0.7857758083001568,2.0,1.0,26.0
1.8335576720827604,1.6849180066847145,1.898312691460517,-1.4541626572016115,0.5265525645296479,0.38581743144165936,0.49138733144546604,0.5939406459083105,0.419381435985245,0.5258226938072252,-0.6979518411278751,-0.8250744929013633,-0.7857758083001568,2.0,1.0,26.0
-0.8294057866123009,-0.8877658911584035,-0.8077451032959467,-1.4541626572016115,0.26667339558437003,0.12678108092352636,0.19183832613690482,1.216472519550486,1.022376358561921,1.1831992355796639,-0.5384056465286857,-0.6542346633122235,-0.6053184515794844,1.0,1.0,26.0
-0.4033316332210911,0.6367875297856664,0.3113321459166204,-1.4541626572016115,0.4485888138460646,0.30810652628621943,0.40969214817949473,1.5578609663865173,1.3841733121079263,1.5436960488097105,-0.3434047420185653,-0.46631085076416967,-0.4068153591867447,2.0,1.0,26.0
-0.4033316332210911,-0.22077376949537295,-0.3244839307174183,-1.4541626572016115,0.31864922937342566,0.15268471597533964,0.2463017816475523,0.212388852385687,0.03748465168668369,0.1229144907854081,-0.7156791960833406,-0.8250744929013633,-0.803821543972224,2.0,1.0,26.0
-1.3619984783513133,-1.5547580128214342,-1.480420082923263,0.46658744252655937,0.24068547868984227,0.10087744587171303,0.19183832613690482,-0.8519398348089997,-1.027806378198777,-0.9797816438006176,-0.41431416184042713,-0.5346467825998257,-0.4970440375470808,5.0,0.0,15.0
-0.616368709916696,0.2556491745496489,-0.25178998314734297,0.46658744252655937,-0.2530849423061857,-0.3912916201127397,-0.35279622896956997,-0.811776488122408,-0.9876067166936652,-0.9373702540088477,-0.3788594519294963,-0.5004788166819977,-0.4609525662029465,0.0,0.0,15.0
-0.7228872482644985,-0.6019121247313904,-0.7299318636434721,0.46658744252655937,-0.9027828646693804,-1.0388824964080723,-1.0063576950973399,0.8550023993711582,0.6605794050159154,0.8014967274537317,-0.44976887175135816,-0.5688147485176535,-0.5150897732191481,5.0,0.0,15.0
-0.9359243249601034,-0.8877658911584035,-0.9347035469394587,0.46658744252655937,0.26667339558437003,0.12678108092352636,0.19183832613690482,-0.8519398348089997,-1.0077065474462212,-0.9797816438006176,-0.43204151679589264,-0.5346467825998257,-0.4970440375470808,5.0,0.0,15.0
-0.616368709916696,-0.6971967135403948,-0.712526270563313,0.46658744252655937,0.5785283983187035,0.4117210664934727,0.5186190592007898,-0.65112310137604,-0.8268080706732182,-0.7889303897376517,-0.5206782915732202,-0.6371506803533095,-0.6053184515794844,5.0,0.0,15.0
-0.29681309487328866,0.8273567074036752,0.09632187845583497,0.46658744252655937,-0.2530849423061857,0.10087744587171303,-0.24386931794827513,-1.0929199149285513,-1.027806378198777,-1.0858101182800433,-0.39658680688496184,-0.36380695301068566,-0.3887696235146775,0.0,0.0,15.0
0.8748908269525384,0.6367875297856664,0.7311140966733926,0.46658744252655937,-0.46098827746240806,-0.5467134304236195,-0.5434183232568363,1.4172892529834455,1.3238738198502586,1.45887326922617,-0.3434047420185653,-0.43214288484634167,-0.3887696235146775,0.0,0.0,15.0
-0.4033316332210911,-0.6019121247313904,-0.538470339761724,0.46658744252655937,-0.2790728592007135,-0.417195255164553,-0.38002795672489376,-0.811776488122408,-0.9675068859411093,-0.9373702540088477,-0.3788594519294963,-0.5004788166819977,-0.4609525662029465,0.0,0.0,15.0
-0.8294057866123009,-0.22077376949537295,-0.576353101171482,0.46658744252655937,-1.214637867403714,-1.297918846926205,-1.3059067004059008,0.6140223192516066,0.4796809282429126,0.5894397784948806,-0.3788594519294963,-0.46631085076416967,-0.44290683053087926,0.0,0.0,15.0
0.12926105851792116,1.58963341787571,0.403479403399815,0.46658744252655937,0.006794226639092136,-0.08044799949098008,-0.0532472236610089,-1.1330832616151434,-1.289104177982003,-1.2766613723430091,-0.20158590237484125,-0.3125550041339439,-0.26244947381020667,0.0,0.0,15.0
-0.9359243249601034,-0.9830504799674079,-0.9684908746832963,0.46658744252655937,0.5785283983187035,0.437624701545286,0.5186190592007898,-0.590878081346152,-0.7665085784155506,-0.7253133050499965,-0.5384056465286857,-0.6713186462711375,-0.6233641872515516,5.0,0.0,15.0
-0.5098501715688936,-0.4113429471133817,-0.558947508091323,0.46658744252655937,0.032782143533619953,-0.10635163454279338,-0.0532472236610089,-1.1130015882718474,-1.289104177982003,-1.2766613723430091,-0.20158590237484125,-0.3296389870928577,-0.26244947381020667,0.0,0.0,15.0
-0.8294057866123009,-0.8877658911584035,-0.848699439955144,0.46658744252655937,-0.22709702541165797,-0.3653879850609264,-0.32556450121424635,-0.811776488122408,-0.9675068859411093,-0.9373702540088477,-0.39658680688496184,-0.5175627996409117,-0.4609525662029465,0.0,0.0,15.0
-1.1489614016557084,-1.2689042463944211,-1.2346940629680792,0.46658744252655937,0.5785283983187035,0.437624701545286,0.5186190592007898,-0.590878081346152,-0.7665085784155506,-0.7253133050499965,-0.5384056465286857,-0.6713186462711375,-0.6233641872515516,5.0,0.0,15.0
-0.29681309487328866,-0.12548918068636858,-0.30298290397133965,0.46658744252655937,0.3706250631624812,0.23039562113077955,0.32799696491352354,-0.3699796745698964,-0.5454104401374362,-0.4920506611952602,-0.6447697762614786,-0.7567385610657072,-0.7135928656118877,0.0,0.0,15.0
-1.2554799400035108,-1.0783350687764124,-1.0882823094114487,0.46658744252655937,-1.188649950509186,-1.3238224819780184,-1.3059067004059008,0.6341039925949025,0.4796809282429126,0.5894397784948806,-0.3788594519294963,-0.4833948337230837,-0.44290683053087926,0.0,0.0,15.0
-0.5098501715688936,-0.31605835830437734,-0.558947508091323,0.46658744252655937,-0.2790728592007135,-0.417195255164553,-0.35279622896956997,-0.811776488122408,-0.9675068859411093,-0.9373702540088477,-0.3788594519294963,-0.5004788166819977,-0.4609525662029465,0.0,0.0,15.0
-1.4685170166991157,-1.0783350687764124,-1.3780342412752697,0.46658744252655937,0.39661298005700907,0.25629925618259286,0.32799696491352354,2.240637860058581,2.067567557694826,2.2858953701656897,1.464785463438915,1.2933393940039706,1.433849679364114,2.0,1.0,15.0
-1.3619984783513133,-1.2689042463944211,-1.3196743115359135,0.46658744252655937,-0.09715744093901897,-0.23586980980185995,-0.18940586243762758,0.9955741127742301,0.8213780510363622,0.9499365917249275,-0.6093150663505478,-0.7225705951478795,-0.6775013942677535,3.0,1.0,15.0
0.44881667356132854,0.6367875297856664,0.4208849964799726,0.46658744252655937,0.18870964490078668,0.07497381081989973,0.13737487062625733,-1.0125932215553677,-1.168505193466668,-1.1494272029676986,-0.3079500321076343,-0.43214288484634167,-0.37072388784261023,2.0,1.0,15.0
0.6618537502569335,0.44621835216765765,0.5498911569564447,0.46658744252655937,-0.07116952404449123,-0.2099661747500466,-0.13494240692698012,2.280801206745173,2.1077672191999373,2.32830675995746,0.9861468796413466,0.8149878711543791,0.9285690805462312,1.0,1.0,15.0
0.02274252017011871,0.06507999693164018,0.02158021405279943,0.46658744252655937,0.058770060428147766,-0.08044799949098008,0.0012162318496386024,-0.811776488122408,-0.9876067166936652,-0.9373702540088477,-0.43204151679589264,-0.5517307655587395,-0.4970440375470808,3.0,1.0,15.0
0.12926105851792116,-0.030204591877364195,0.0348903734670381,0.46658744252655937,-0.40901244367335243,-0.5208097953718064,-0.4889548677461887,-0.06875457442045668,-0.20371331734398665,-0.15275954286109833,-0.6624971312169441,-0.7396545781067935,-0.7135928656118877,3.0,1.0,15.0
-0.08377601817768375,-0.31605835830437734,-0.2005970623233463,0.46658744252655937,0.058770060428147766,-0.08044799949098008,0.0012162318496386024,-0.8318581614657037,-0.9876067166936652,-0.9585759489047327,-0.43204151679589264,-0.5517307655587395,-0.4970440375470808,3.0,1.0,15.0
-0.1902945565254862,0.44621835216765765,0.3799306598207761,0.46658744252655937,-1.188649950509186,-1.297918846926205,-1.3059067004059008,0.6541856659381985,0.4796809282429126,0.5894397784948806,-0.3788594519294963,-0.4833948337230837,-0.44290683053087926,1.0,1.0,15.0
1.1944464419959457,1.3990642402577014,1.3249519782317551,0.46658744252655937,0.18870964490078668,0.049070175768086435,0.13737487062625733,-1.0125932215553677,-1.1886050242192239,-1.1494272029676986,-0.3079500321076343,-0.43214288484634167,-0.37072388784261023,2.0,1.0,15.0
-0.5098501715688936,-0.5066275359223861,-0.4360844981137307,0.46658744252655937,0.3706250631624812,0.25629925618259286,0.3007652371581998,-0.30973465454000837,-0.42481145562210115,-0.4072278816117197,-0.6802244861724096,-0.7738225440246213,-0.731638601283955,2.0,1.0,15.0
0.12926105851792116,0.44621835216765765,0.3799306598207761,0.46658744252655937,0.18870964490078668,0.049070175768086435,0.13737487062625733,-0.711368121405928,-0.8871075629308858,-0.831341779529422,-0.5029509366177547,-0.6200666973943955,-0.5692269802353499,2.0,1.0,15.0
-1.3619984783513133,-1.3641888352034255,-1.3575570729456707,0.46658744252655937,-0.09715744093901897,-0.23586980980185995,-0.18940586243762758,0.9955741127742301,0.8213780510363622,0.9711422866208125,-0.6093150663505478,-0.7225705951478795,-0.6775013942677535,3.0,1.0,15.0
-0.08377601817768375,-0.030204591877364195,-0.09821122067535296,0.46658744252655937,-0.40901244367335243,-0.5467134304236195,-0.4889548677461887,-0.028591227733864747,-0.22381314809654254,-0.13155384796521327,-0.6447697762614786,-0.7567385610657072,-0.7135928656118877,3.0,1.0,15.0
-1.2554799400035108,-1.0783350687764124,-1.1906681510594421,0.46658744252655937,0.2146975617953145,0.07497381081989973,0.13737487062625733,-0.10891792110704861,-0.28411264035421013,-0.21637662754875367,-0.6979518411278751,-0.8079905099424493,-0.7857758083001568,2.0,1.0,15.0
-0.5098501715688936,-0.7924813023493992,-0.6613333497393163,0.46658744252655937,0.3706250631624812,0.23039562113077955,0.32799696491352354,-0.2896529811967124,-0.46501111712721277,-0.38602218671583455,-0.6624971312169441,-0.7738225440246213,-0.7496843369560222,2.0,1.0,15.0
-1.4685170166991157,-0.9830504799674079,-1.2930539927074354,0.46658744252655937,0.2146975617953145,0.12678108092352636,0.13737487062625733,-0.10891792110704861,-0.28411264035421013,-0.1951709326528686,-0.7156791960833406,-0.8079905099424493,-0.7857758083001568,2.0,1.0,15.0
0.3422981352135261,0.16036458574064455,0.23044733101470502,0.46658744252655937,0.18870964490078668,0.049070175768086435,0.13737487062625733,-1.0125932215553677,-1.168505193466668,-1.1494272029676986,-0.3079500321076343,-0.43214288484634167,-0.3887696235146775,2.0,1.0,15.0
-0.08377601817768375,-0.31605835830437734,-0.21083564648814504,0.46658744252655937,-0.38302452677882465,-0.5467134304236195,-0.4889548677461887,-0.048672901077160685,-0.22381314809654254,-0.13155384796521327,-0.6447697762614786,-0.7567385610657072,-0.7135928656118877,3.0,1.0,15.0
-1.2554799400035108,-0.6019121247313904,-1.0370893885874521,-1.4541626572016115,-1.214637867403714,-1.090689766511699,-1.2514432448952535,-1.2134099549883275,-0.5655102708899922,-0.9585759489047327,-0.3611320969740308,0.37080431422261545,-0.009809174401265448,0.0,0.0,25.0
-1.042442863307906,-0.8877658911584035,-0.9684908746832963,0.46658744252655937,-1.1626620336146583,-1.2202079417707656,-1.22421151713993,-1.1130015882718474,-1.2489045164768915,-1.2554556774471242,1.748423142726363,1.6008510872644224,1.7586729214613246,5.0,0.0,25.0
0.02274252017011871,-0.31605835830437734,-0.14940414149934964,0.46658744252655937,-0.6429036957241027,-0.7798461458899394,-0.7612721452994262,-1.1531649349584394,-1.3293038394871148,-1.3190727621347795,2.032060822013811,1.8058588827713904,1.9932674851981989,0.0,0.0,25.0
-1.3619984783513133,-1.4594734240124299,-1.3954398343554288,-1.4541626572016115,-1.7343962052942699,1.0593119427888054,-0.8429673285653974,-1.5748800751676548,2.0876673884473815,-0.30119940713229415,-1.052498940237185,3.4459212468271327,-0.009809174401265448,0.0,0.0,25.0
-1.8945911700903255,-1.9358963680574517,-1.9073690425953955,0.46658744252655937,-0.8767949477748526,-1.0388824964080723,-1.0063576950973399,-1.1130015882718474,-1.3092040087345589,-1.2766613723430091,1.9434240472364832,1.72043896797682,1.903038806837862,5.0,0.0,25.0
-1.4685170166991157,-1.4594734240124299,-1.5142074106671006,0.46658744252655937,-0.9027828646693804,-1.0388824964080723,-1.0063576950973399,-1.1130015882718474,-1.289104177982003,-1.2554556774471242,1.9434240472364832,1.7375229509357344,1.9210845425099299,5.0,0.0,25.0
-1.788072631742523,-1.745327190439443,-1.787577607867243,0.46658744252655937,0.032782143533619953,-0.1322552695946067,-0.0532472236610089,-1.635125095197543,-1.8317996083010113,-1.8280094396360222,1.3584213337061222,1.1737515132915728,1.3075295296596434,5.0,0.0,25.0
-1.042442863307906,-1.1736196575854168,-1.132308221320086,-1.4541626572016115,-0.6688916126186304,-0.8057497809417526,-0.7612721452994262,0.5336956258784227,0.3791817744801333,0.48341130401545496,-0.5738603564396167,-0.6884026292300515,-0.6414099229236189,0.0,0.0,25.0
-0.8294057866123009,-0.6971967135403948,-0.7841963597169086,-1.4541626572016115,-0.7728432801967416,-0.9093643211490058,-0.8701990563207211,-0.5105513879729681,-0.6459095939002155,-0.5980791356746857,-0.39658680688496184,-0.5004788166819977,-0.4609525662029465,5.0,0.0,25.0
-0.5098501715688936,-0.6019121247313904,-0.5415419150111639,0.46658744252655937,-1.318589534981825,-1.453340657237085,-1.4692970669378436,-0.811776488122408,-0.9876067166936652,-0.9585759489047327,1.9256966922810181,1.72043896797682,1.903038806837862,0.0,0.0,25.0
-1.5750355550469182,-1.4594734240124299,-1.5623287562416575,-1.4541626572016115,-0.720867446407686,-0.8575570510453792,-0.8429673285653974,-0.4503063679430802,-0.6057099323951037,-0.5556677458829155,-0.41431416184042713,-0.5346467825998257,-0.4970440375470808,5.0,0.0,25.0
-1.5750355550469182,-1.6500426016304386,-1.6002115176514153,0.46658744252655937,-0.7988311970912695,-0.9352679562008192,-0.9246625118313686,-1.1130015882718474,-1.289104177982003,-1.2766613723430091,1.9788787571474142,1.7716909168535624,1.9571760138540644,5.0,0.0,25.0
-1.2554799400035108,-1.1736196575854168,-1.2346940629680792,-1.4541626572016115,-0.5649399450405191,-0.6762316056826861,-0.6523452342781312,1.216472519550486,1.2032748353349236,1.2892277100590892,-0.39658680688496184,-0.43214288484634167,-0.44290683053087926,0.0,0.0,25.0
1.4074835186915506,1.58963341787571,1.506174917948703,0.46658744252655937,0.006794226639092136,-0.1322552695946067,-0.0532472236610089,-1.635125095197543,-1.8317996083010113,-1.8280094396360222,1.3584213337061222,1.1737515132915728,1.3255752653317108,5.0,0.0,25.0
-0.616368709916696,0.06507999693164018,-0.269195576227502,0.46658744252655937,-1.7603841221887975,0.17858835102715295,-0.7340404175441024,-2.0166768887201663,2.168066711457605,0.5682340835989955,-0.7334065510388061,2.8650658262240567,0.47742568874455016,0.0,0.0,25.0
-1.2554799400035108,-0.8877658911584035,-1.0370893885874521,-1.4541626572016115,-0.720867446407686,-0.831653415993566,-0.8157356008100736,0.011572118952727242,-0.14341382508631909,-0.046731068381672805,-0.5738603564396167,-0.6200666973943955,-0.6233641872515516,5.0,0.0,25.0
-1.5750355550469182,-1.3641888352034255,-1.480420082923263,0.46658744252655937,-0.7988311970912695,-0.9611715912526325,-0.9246625118313686,-1.1531649349584394,-1.3494036702396708,-1.3190727621347795,1.9256966922810181,1.72043896797682,1.903038806837862,5.0,0.0,25.0
-0.5098501715688936,-0.31605835830437734,-0.3685098426260554,-1.4541626572016115,-0.38302452677882465,-0.5208097953718064,-0.4889548677461887,0.23247052572898297,0.07768431319179542,0.18653157547306343,-0.6447697762614786,-0.7738225440246213,-0.731638601283955,5.0,0.0,25.0
-1.1489614016557084,-1.2689042463944211,-1.1906681510594421,-1.4541626572016115,-0.6169157788295748,-0.7280388757863127,-0.7068086897887786,0.8148390526845662,0.7208788972735829,0.8227024223496168,-0.5738603564396167,-0.6200666973943955,-0.6053184515794844,0.0,0.0,25.0
-0.616368709916696,-0.7924813023493992,-0.712526270563313,-1.4541626572016115,-0.46098827746240806,-0.5985207005272462,-0.5706500510121599,0.6341039925949025,0.45958109749035675,0.5894397784948806,-0.6093150663505478,-0.7225705951478795,-0.6955471299398207,0.0,0.0,25.0
-1.4685170166991157,-0.9830504799674079,-1.4189885779344669,-1.4541626572016115,-1.1106861998256026,-1.246111576822579,-1.2514432448952535,-1.1330832616151434,-1.3092040087345589,-1.2766613723430091,1.7306957877708975,1.5325151554287664,1.7045357144451228,5.0,0.0,25.0
-1.2554799400035108,-1.1736196575854168,-1.2582428065471174,-1.4541626572016115,-0.7728432801967416,-0.9093643211490058,-0.8701990563207211,-0.4904697146296722,-0.6459095939002155,-0.5980791356746857,-0.39658680688496184,-0.5004788166819977,-0.4609525662029465,5.0,0.0,25.0
-1.4685170166991157,-1.5547580128214342,-1.5490185968274188,-1.4541626572016115,-0.5389520281459914,-0.6244243355790595,-0.5978817787674837,0.7947573793412702,0.6404795742633596,0.7590853376619614,-0.5738603564396167,-0.6713186462711375,-0.6414099229236189,0.0,0.0,25.0
-1.5750355550469182,-1.6500426016304386,-1.6677861731390906,0.46658744252655937,-0.8248191139857972,-0.9611715912526325,-0.9518942395866924,-1.2134099549883275,-1.4097031624973384,-1.382689846822435,1.819332562548225,1.6179350702233364,1.794764392805459,5.0,0.0,25.0
-1.788072631742523,-1.745327190439443,-1.7671004395376442,0.46658744252655937,0.11074589421720332,-0.028640729387353472,0.0556796873602861,0.6140223192516066,0.45958109749035675,0.5682340835989955,-0.6979518411278751,-0.8079905099424493,-0.7857758083001568,5.0,0.0,25.0
-1.5750355550469182,-1.6500426016304386,-1.6677861731390906,0.46658744252655937,-0.8508070308803247,-0.9870752263044458,-0.9518942395866924,-1.2134099549883275,-1.3896033317447825,-1.3614841519265497,1.8370599175036906,1.6350190531822504,1.794764392805459,5.0,0.0,25.0
-0.4033316332210911,-0.4113429471133817,-0.4391560733631706,0.46658744252655937,-1.1106861998256026,-1.246111576822579,-1.22421151713993,-1.0929199149285513,-1.289104177982003,-1.2554556774471242,1.8016052075927595,1.5837671043055084,1.7586729214613246,5.0,0.0,25.0
-1.6815540933947206,-1.745327190439443,-1.7025973592994088,0.46658744252655937,0.032782143533619953,-0.1322552695946067,-0.0532472236610089,-1.635125095197543,-1.8317996083010113,-1.8280094396360222,1.3584213337061222,1.1737515132915728,1.3075295296596434,5.0,0.0,25.0
-1.5750355550469182,-1.745327190439443,-1.6851917662192497,-1.4541626572016115,-0.5129641112514637,-0.6503279706308729,-0.5978817787674837,0.8750840727144542,0.7007790665210271,0.8227024223496168,-0.5384056465286857,-0.6713186462711375,-0.6233641872515516,2.0,1.0,25.0
-1.5750355550469182,-1.6500426016304386,-1.6647145978896507,-1.4541626572016115,-0.019193690255435606,-0.15815890464642005,-0.08047895141633266,0.3127972191021669,0.13798380544946298,0.22894296526483365,-0.7156791960833406,-0.8250744929013633,-0.7857758083001568,2.0,1.0,25.0
-1.3619984783513133,-1.5547580128214342,-1.480420082923263,-1.4541626572016115,-0.5129641112514637,-0.6503279706308729,-0.5978817787674837,0.8750840727144542,0.7007790665210271,0.8227024223496168,-0.5561330014841512,-0.6713186462711375,-0.6233641872515516,2.0,1.0,25.0
-1.042442863307906,-1.1736196575854168,-1.0882823094114487,0.46658744252655937,-0.9027828646693804,-1.0647861314598857,-1.0335894228526636,-1.1130015882718474,-1.289104177982003,-1.2554556774471242,1.9256966922810181,1.72043896797682,1.903038806837862,2.0,1.0,25.0
-1.5750355550469182,-1.6500426016304386,-1.6032830929008552,0.46658744252655937,0.11074589421720332,-0.028640729387353472,0.0556796873602861,0.6541856659381985,0.4997807589954685,0.6106454733907656,-0.6979518411278751,-0.8079905099424493,-0.7677300726280895,2.0,1.0,25.0
-1.3619984783513133,-1.2689042463944211,-1.3780342412752697,-1.4541626572016115,-0.4869761943569359,-0.6503279706308729,-0.5978817787674837,0.8349207260278623,0.6605794050159154,0.8014967274537317,-0.5561330014841512,-0.6713186462711375,-0.6414099229236189,2.0,1.0,25.0
-0.4033316332210911,-0.6019121247313904,-0.482158126855328,0.46658744252655937,-1.318589534981825,-1.4792442922888984,-1.4692970669378436,-0.811776488122408,-0.9876067166936652,-0.9585759489047327,1.9256966922810181,1.72043896797682,1.903038806837862,1.0,1.0,25.0
-1.2554799400035108,-1.3641888352034255,-1.3575570729456707,-1.4541626572016115,0.13673381111173114,-0.002737094335540181,0.08291141511560983,-0.2695713078534164,-0.44491128637465704,-0.3648164918199496,-0.6624971312169441,-0.7738225440246213,-0.731638601283955,2.0,1.0,25.0
-0.4033316332210911,-0.6971967135403948,-0.558947508091323,-1.4541626572016115,-0.09715744093901897,-0.23586980980185995,-0.16217413468230388,0.7947573793412702,0.6404795742633596,0.7590853376619614,-0.6447697762614786,-0.7567385610657072,-0.731638601283955,1.0,1.0,25.0
-0.616368709916696,0.7320721185946708,-0.09821122067535296,0.46658744252655937,0.006794226639092136,-0.1322552695946067,-0.0532472236610089,-1.635125095197543,-1.8317996083010113,-1.8280094396360222,1.3761486886615877,1.1908354962504868,1.3255752653317108,2.0,1.0,25.0
-0.29681309487328866,-0.4113429471133817,-0.3367702317151773,-1.4541626572016115,-0.07116952404449123,-0.2099661747500466,-0.16217413468230388,0.7345123593113824,0.5801800820056919,0.6954682529743061,-0.6624971312169441,-0.7738225440246213,-0.731638601283955,2.0,1.0,25.0
-0.7228872482644985,-0.7924813023493992,-0.7811247844674687,0.46658744252655937,-0.6429036957241027,-0.7798461458899394,-0.7612721452994262,-1.1531649349584394,-1.3293038394871148,-1.3190727621347795,2.032060822013811,1.8058588827713904,1.9932674851981989,3.0,1.0,25.0
-1.1489614016557084,-1.0783350687764124,-1.0882823094114487,-1.4541626572016115,-0.4869761943569359,-0.6244243355790595,-0.5706500510121599,0.9955741127742301,0.8414778817889181,0.9711422866208125,-0.5206782915732202,-0.6371506803533095,-0.5872727159074171,3.0,1.0,25.0
-1.2554799400035108,-1.0783350687764124,-1.1875965758100022,-1.4541626572016115,-0.720867446407686,-0.8575570510453792,-0.8429673285653974,0.1320621590125031,-0.04291467132353975,0.03809171120186766,-0.5561330014841512,-0.6713186462711375,-0.6414099229236189,2.0,1.0,25.0
-1.4685170166991157,-1.2689042463944211,-1.480420082923263,0.46658744252655937,-0.7988311970912695,-0.9352679562008192,-0.9246625118313686,-1.1330832616151434,-1.3293038394871148,-1.2978670672388943,1.961151402191949,1.754606933894648,1.9210845425099299,1.0,1.0,25.0
-0.08377601817768375,-0.030204591877364195,-0.115616813755512,-1.4541626572016115,-0.4869761943569359,-0.6244243355790595,-0.5706500510121599,0.8951657460577502,0.7208788972735829,0.8651138121413869,-0.5561330014841512,-0.6713186462711375,-0.6233641872515516,2.0,1.0,25.0
-0.7228872482644985,-0.8877658911584035,-0.8323177052914654,-1.4541626572016115,-0.4869761943569359,-0.6244243355790595,-0.5978817787674837,0.8951657460577502,0.7409787280261388,0.8651138121413869,-0.5384056465286857,-0.6542346633122235,-0.6233641872515516,3.0,1.0,25.0
-1.5750355550469182,-1.745327190439443,-1.6851917662192497,4.308087641982901,-2.2281666262902977,3.779193623229202,0.8998632477753221,-0.048672901077160685,3.2132579105905097,1.4164618794344,-0.6270424213060131,1.6521030361411642,0.6217915741210881,2.0,1.0,25.0
-1.1489614016557084,-0.9830504799674079,-0.9684908746832963,-1.4541626572016115,-0.5129641112514637,-0.6503279706308729,-0.5978817787674837,0.8750840727144542,0.7007790665210271,0.8227024223496168,-0.5561330014841512,-0.6713186462711375,-0.6233641872515516,2.0,1.0,25.0
0.12926105851792116,-0.030204591877364195,0.055367541796637054,0.46658744252655937,1.254214237576426,1.1111192128924319,1.2538757085945307,-0.711368121405928,-0.9072073936834417,-0.8525474744253071,2.4220626310340516,2.1987904908264118,2.4083194056557455,5.0,0.0,18.0
1.3009649803437482,1.4943488290667057,1.328023553481195,0.46658744252655937,1.3061900713654817,1.137022847944245,1.2811074363498545,-1.4945533817944712,-1.6710009622805646,-1.6795695753648265,1.500240173349846,1.3104233769628846,1.4518954150361814,5.0,0.0,18.0
0.5553352119091309,0.44621835216765765,0.5529627322058847,0.46658744252655937,1.8519363261505652,1.7069028190841378,1.852973719211653,-0.5105513879729681,-0.6861092554053273,-0.6192848305705709,-0.23704061228577225,-0.36380695301068566,-0.31658668082640845,5.0,0.0,18.0
2.2596318254739702,1.6849180066847145,2.0006985331085105,0.46658744252655937,1.0203229855256761,0.8520828623742988,0.9815584310412934,-1.1531649349584394,-1.3293038394871148,-1.3190727621347795,-0.1129491275975139,-0.2442190722982879,-0.19026653112193784,5.0,0.0,18.0
1.9400762104305629,1.4943488290667057,1.744733928988527,0.46658744252655937,0.6045163152132313,0.46352833659709936,0.5458507869561134,-1.0125932215553677,-1.1886050242192239,-1.1706328978635838,-0.3079500321076343,-0.43214288484634167,-0.37072388784261023,5.0,0.0,18.0
0.44881667356132854,0.2556491745496489,0.3215707300814192,0.46658744252655937,1.79996049236151,1.6550955489805115,1.8257419914563295,-0.41014302125648827,-0.5856101016425479,-0.5344620509870304,-0.3079500321076343,-0.43214288484634167,-0.37072388784261023,5.0,0.0,18.0
1.514002057039353,1.2084950626396926,1.3863834832205504,0.46658744252655937,1.3061900713654817,1.137022847944245,1.2811074363498545,-1.4945533817944712,-1.6911007930331203,-1.6795695753648265,1.4825128183943805,1.3104233769628846,1.4518954150361814,5.0,0.0,18.0
1.727039133734958,1.3990642402577014,1.573749573436378,0.46658744252655937,1.0203229855256761,0.8779864974261121,0.9815584310412934,-1.1531649349584394,-1.3293038394871148,-1.3190727621347795,-0.1129491275975139,-0.2442190722982879,-0.17222079544987057,5.0,0.0,18.0
1.8335576720827604,1.6849180066847145,1.6761354150843715,0.46658744252655937,1.0203229855256761,0.8779864974261121,0.9815584310412934,-1.1531649349584394,-1.3293038394871148,-1.3190727621347795,-0.1129491275975139,-0.2442190722982879,-0.17222079544987057,5.0,0.0,18.0
1.4074835186915506,1.3990642402577014,1.506174917948703,0.46658744252655937,1.3061900713654817,1.137022847944245,1.2811074363498545,-1.4945533817944712,-1.6710009622805646,-1.6795695753648265,1.500240173349846,1.3104233769628846,1.4518954150361814,5.0,0.0,18.0
1.8335576720827604,1.4943488290667057,1.6935410081645306,0.46658744252655937,1.0203229855256761,0.8779864974261121,0.9815584310412934,-1.1531649349584394,-1.3293038394871148,-1.3190727621347795,-0.1129491275975139,-0.2442190722982879,-0.17222079544987057,5.0,0.0,18.0
2.153113287126168,3.9717481381008195,2.9221711079404504,0.46658744252655937,1.0203229855256761,0.8520828623742988,0.9815584310412934,-1.1531649349584394,-1.3293038394871148,-1.3190727621347795,-0.1129491275975139,-0.2442190722982879,-0.17222079544987057,5.0,0.0,18.0
1.8335576720827604,1.6849180066847145,1.813332442892683,0.46658744252655937,0.6045163152132313,0.46352833659709936,0.5730825147114372,-1.0326748948986637,-1.2087048549717798,-1.1706328978635838,-0.29022267715216876,-0.41505890188742767,-0.37072388784261023,5.0,0.0,18.0
2.0465947487783653,1.7802025954937188,1.9321000192043547,0.46658744252655937,0.9163713179475648,0.774371957218859,0.8726315200199983,1.1361458261773019,0.9620768663042533,1.1195821508920085,-0.5384056465286857,-0.6542346633122235,-0.6053184515794844,5.0,0.0,18.0
1.3009649803437482,1.6849180066847145,1.4273378198797484,0.46658744252655937,0.6305042321077592,0.46352833659709936,0.5730825147114372,-1.0326748948986637,-1.2087048549717798,-1.1706328978635838,-0.29022267715216876,-0.41505890188742767,-0.37072388784261023,5.0,0.0,18.0
2.0465947487783653,1.6849180066847145,1.9597441964493125,0.46658744252655937,1.046310902420204,0.8779864974261121,1.0087901587966173,-1.1531649349584394,-1.3494036702396708,-1.3190727621347795,-0.09522177264204838,-0.2271350893393739,-0.17222079544987057,2.0,1.0,18.0
1.514002057039353,1.303779651448697,1.4037890763007095,0.46658744252655937,1.0203229855256761,0.8779864974261121,1.0087901587966173,-1.2937366483615114,-1.470002654755006,-1.4675126264059755,0.046597067001675485,-0.0904632256680621,-0.009809174401265448,3.0,1.0,18.0
1.9400762104305629,1.6849180066847145,1.8778355231309183,0.46658744252655937,1.046310902420204,0.9038901324779255,1.0360218865519408,-1.1732466083017354,-1.3494036702396708,-1.3402784570306647,-0.07749441768658288,-0.2100511063804599,-0.13612932410573605,3.0,1.0,18.0
0.7683722886047359,1.2084950626396926,0.8406669472367462,0.46658744252655937,1.2802021544709539,1.137022847944245,1.2811074363498545,-0.711368121405928,-0.8871075629308858,-0.831341779529422,2.4220626310340516,2.1987904908264118,2.4083194056557455,2.0,1.0,18.0
2.0465947487783653,1.6849180066847145,1.898312691460517,0.46658744252655937,1.254214237576426,1.0852155778406185,1.2266439808392071,-1.534716728481063,-1.7313004545382322,-1.7219809651565967,1.3761486886615877,1.1908354962504868,1.343621001003778,2.0,1.0,18.0
2.0465947487783653,1.58963341787571,1.8297141775563615,0.46658744252655937,1.046310902420204,0.9038901324779255,1.0360218865519408,-1.1732466083017354,-1.3494036702396708,-1.3402784570306647,-0.07749441768658288,-0.2100511063804599,-0.13612932410573605,3.0,1.0,18.0
0.9814093653003408,0.9226412962126795,0.9594345235484181,0.46658744252655937,1.2802021544709539,1.137022847944245,1.2538757085945307,-0.711368121405928,-0.8871075629308858,-0.831341779529422,2.4220626310340516,2.1987904908264118,2.4083194056557455,3.0,1.0,18.0
2.68570597886518,3.11418683881978,3.2702829695436284,2.38733754225473,-0.045181607149963415,3.494253637659256,1.553424713903092,-2.217493622153126,0.9419770355516974,-1.1706328978635838,-0.6093150663505478,2.1987904908264118,0.982706287562433,1.0,1.0,18.0
1.727039133734958,1.58963341787571,1.6730638398349316,0.46658744252655937,1.254214237576426,1.0852155778406185,1.2266439808392071,-1.554798401824359,-1.7313004545382322,-1.7219809651565967,1.3761486886615877,1.1908354962504868,1.343621001003778,3.0,1.0,18.0
2.153113287126168,1.6849180066847145,1.918789859790116,0.46658744252655937,0.058770060428147766,1.1888301180478718,0.9270949755306459,-1.434308361764583,0.8012782202838065,-1.1494272029676986,-0.8220433258161337,0.18288050167456169,-0.17222079544987057,3.0,1.0,18.0
1.0879279036481433,1.1132104738306883,1.2430433049133591,0.46658744252655937,1.2802021544709539,1.137022847944245,1.2811074363498545,-0.711368121405928,-0.8871075629308858,-0.831341779529422,2.4220626310340516,2.1987904908264118,2.4083194056557455,3.0,1.0,18.0
1.514002057039353,1.3990642402577014,1.5573678387726995,0.46658744252655937,1.3061900713654817,1.137022847944245,1.2811074363498545,-0.711368121405928,-0.8871075629308858,-0.831341779529422,2.4220626310340516,2.1987904908264118,2.3902736699836775,2.0,1.0,18.0
2.898743055560785,2.6377638947747584,2.888383780196613,0.46658744252655937,0.5005646476351202,2.2508791551722176,1.0087901587966173,-1.5748800751676548,-1.2690043472294472,-1.5735411008854008,0.5429630057547093,1.788774899812476,1.7225814501171899,2.0,1.0,18.0
0.5553352119091309,0.3509337633586533,0.44443374005901143,0.46658744252655937,1.2802021544709539,1.1111192128924319,1.2538757085945307,-0.711368121405928,-0.8871075629308858,-0.8525474744253071,2.4220626310340516,2.1987904908264118,2.4083194056557455,1.0,1.0,18.0
2.366150363821773,1.7802025954937188,2.103084374756504,0.46658744252655937,1.9558879937286764,1.7846137242395779,1.961900630232948,-1.0326748948986637,-1.2288046857243355,-1.191838592759469,1.783877852637294,1.5837671043055084,1.7586729214613246,2.0,1.0,18.0
1.0879279036481433,1.1132104738306883,1.0792259582765704,0.46658744252655937,1.2802021544709539,1.137022847944245,1.2538757085945307,-0.711368121405928,-0.8871075629308858,-0.831341779529422,2.4220626310340516,2.1987904908264118,2.4083194056557455,3.0,1.0,18.0
1.9400762104305629,1.58963341787571,1.8297141775563615,0.46658744252655937,1.254214237576426,1.0852155778406185,1.2266439808392071,-1.554798401824359,-1.7313004545382322,-1.7219809651565967,1.3761486886615877,1.1908354962504868,1.343621001003778,3.0,1.0,18.0
2.2596318254739702,1.7802025954937188,2.051891453932507,0.46658744252655937,1.9558879937286764,2.2249755201204042,1.9891323579882718,-1.1330832616151434,-0.7665085784155506,-1.1494272029676986,1.3052392688397256,2.0621186271550997,1.7586729214613246,2.0,1.0,18.0
0.6618537502569335,0.8273567074036752,0.7720684333325905,0.46658744252655937,1.2802021544709539,1.1111192128924319,1.2538757085945307,-0.711368121405928,-0.8871075629308858,-0.831341779529422,2.4397899859895174,2.1987904908264118,2.4083194056557455,3.0,1.0,18.0
-0.616368709916696,-0.7924813023493992,-0.7299318636434721,0.46658744252655937,-2.0462512080286035,0.9038901324779255,-0.6795769620334549,-1.3740633417346952,0.419381435985245,-0.3648164918199496,-1.2120451348363745,0.11454456983890579,-0.5331355088912153,0.0,0.0,17.0
0.02274252017011871,-0.22077376949537295,-0.12892697316975066,-1.4541626572016115,-0.40901244367335243,-0.5467134304236195,-0.5161865955015125,0.7144306859680865,0.560080251253136,0.6742625580784211,-0.6093150663505478,-0.7225705951478795,-0.6775013942677535,0.0,0.0,17.0
-0.5098501715688936,-0.6019121247313904,-0.558947508091323,-1.4541626572016115,-0.357036609884297,-0.494906160319993,-0.4344914122355413,0.7545940326546784,0.5801800820056919,0.7166739478701913,-0.6093150663505478,-0.7225705951478795,-0.6955471299398207,0.0,0.0,17.0
-0.616368709916696,-0.6019121247313904,-0.6613333497393163,-1.4541626572016115,-0.357036609884297,-0.494906160319993,-0.4344914122355413,-0.590878081346152,-0.7464087476629948,-0.7041076101541113,-0.46749622670682367,-0.5858987314765675,-0.5511812445632827,5.0,0.0,17.0
-0.29681309487328866,-0.4113429471133817,-0.3541758247953363,-1.4541626572016115,-0.40901244367335243,-0.5467134304236195,-0.5161865955015125,0.7345123593113824,0.560080251253136,0.6742625580784211,-0.6093150663505478,-0.7054866121889655,-0.6775013942677535,0.0,0.0,17.0
-0.4033316332210911,-0.4113429471133817,-0.3203884970514987,-1.4541626572016115,-0.9027828646693804,-0.9352679562008192,-0.9791259673420161,-0.47038804128637624,-0.5253106093848804,-0.4920506611952602,-0.41431416184042713,-0.5004788166819977,-0.47899830187501374,0.0,0.0,17.0
-0.5098501715688936,-0.6019121247313904,-0.576353101171482,-1.4541626572016115,-0.30506077609524135,-0.4430988902163664,-0.38002795672489376,0.8550023993711582,0.6806792357684713,0.8014967274537317,-0.6093150663505478,-0.7225705951478795,-0.6775013942677535,0.0,0.0,17.0
-0.29681309487328866,-0.5066275359223861,-0.4268697723654117,-1.4541626572016115,-0.357036609884297,-0.4690025252681797,-0.4344914122355413,-0.590878081346152,-0.7464087476629948,-0.7041076101541113,-0.46749622670682367,-0.5858987314765675,-0.5511812445632827,5.0,0.0,17.0
0.44881667356132854,0.6367875297856664,0.46491090838861043,0.46658744252655937,1.644032990994343,1.4996737386696315,1.6351198971690633,0.5336956258784227,0.3590819437275774,0.48341130401545496,-0.4852235816622892,-0.6029827144354815,-0.5692269802353499,2.0,1.0,17.0
-0.7228872482644985,-0.6971967135403948,-0.7463135983071506,-1.4541626572016115,-0.2790728592007135,-0.3912916201127397,-0.35279622896956997,-0.9322665281821837,-1.0680060397038886,-1.043398728488273,-0.3079500321076343,-0.41505890188742767,-0.37072388784261023,2.0,1.0,17.0
-0.29681309487328866,-0.4113429471133817,-0.3746529931249353,-1.4541626572016115,-0.6429036957241027,-0.753942510838126,-0.7340404175441024,1.015655786117526,0.8414778817889181,0.9711422866208125,-0.4852235816622892,-0.5858987314765675,-0.5511812445632827,3.0,1.0,17.0
-0.4033316332210911,0.3509337633586533,0.2806163934222227,2.38733754225473,-1.0846982829310752,-0.002737094335540181,-0.13494240692698012,-3.2014956159746286,0.7007790665210271,0.292560049952489,-1.2474998447473056,1.1737515132915728,-0.6594556585956861,3.0,1.0,17.0
-0.4033316332210911,-0.6019121247313904,-0.4770388347729286,-1.4541626572016115,-0.357036609884297,-0.494906160319993,-0.4344914122355413,-0.590878081346152,-0.7464087476629948,-0.7041076101541113,-0.46749622670682367,-0.5858987314765675,-0.5511812445632827,2.0,1.0,17.0
-0.9359243249601034,-1.0783350687764124,-1.0534711232511307,-1.4541626572016115,-0.4350003605678803,-0.5467134304236195,-0.5161865955015125,0.03165379229602318,-0.14341382508631909,-0.06793676327755793,-0.6447697762614786,-0.7396545781067935,-0.7135928656118877,2.0,1.0,17.0
-0.4033316332210911,-0.12548918068636858,-0.11971224742143091,-1.4541626572016115,0.006794226639092136,-0.1322552695946067,-0.0532472236610089,0.6140223192516066,0.43948126673780086,0.5470283887031103,-0.6979518411278751,-0.8079905099424493,-0.7677300726280895,3.0,1.0,17.0
0.02274252017011871,-0.12548918068636858,-0.06442389293151533,-1.4541626572016115,-0.9287707815639082,0.07497381081989973,-0.5706500510121599,-0.9523482015254797,1.6052714503860406,0.22894296526483365,-0.7156791960833406,-0.3467229700517717,-0.5150897732191481,2.0,1.0,17.0
-0.4033316332210911,-0.31605835830437734,-0.3541758247953363,-1.4541626572016115,-0.357036609884297,-0.4690025252681797,-0.4344914122355413,-0.590878081346152,-0.7665085784155506,-0.7253133050499965,-0.46749622670682367,-0.5688147485176535,-0.5331355088912153,3.0,1.0,17.0
0.8748908269525384,2.256625539538741,1.744733928988527,-1.4541626572016115,-0.20110910851713015,-0.3394843500091131,-0.29833277345892256,-0.20932628782352852,-0.36451196336443353,-0.30119940713229415,-0.6270424213060131,-0.7396545781067935,-0.7135928656118877,3.0,1.0,17.0
0.02274252017011871,-0.22077376949537295,-0.1319985484191906,-1.4541626572016115,-0.40901244367335243,-0.5467134304236195,-0.5161865955015125,0.7345123593113824,0.560080251253136,0.6954682529743061,-0.6093150663505478,-0.7225705951478795,-0.6775013942677535,2.0,1.0,17.0
-0.4033316332210911,-0.5066275359223861,-0.45656166644332963,-1.4541626572016115,-0.357036609884297,-0.494906160319993,-0.4344914122355413,-0.590878081346152,-0.7464087476629948,-0.7041076101541113,-0.46749622670682367,-0.5858987314765675,-0.5511812445632827,2.0,1.0,17.0
-0.29681309487328866,1.017925885021684,0.07584471012623602,-1.4541626572016115,-0.40901244367335243,-0.5208097953718064,-0.4889548677461887,0.03165379229602318,-0.14341382508631909,-0.06793676327755793,-0.6447697762614786,-0.7396545781067935,-0.7135928656118877,2.0,1.0,17.0
-0.29681309487328866,-0.5066275359223861,-0.4422276486126105,-1.4541626572016115,-0.357036609884297,-0.4690025252681797,-0.4344914122355413,-0.590878081346152,-0.7464087476629948,-0.7041076101541113,-0.46749622670682367,-0.5858987314765675,-0.5511812445632827,3.0,1.0,17.0
0.2357795968657236,0.5415029409766621,0.40655097864925493,0.46658744252655937,1.644032990994343,1.4996737386696315,1.662351624924387,0.5336956258784227,0.3590819437275774,0.48341130401545496,-0.4852235816622892,-0.6029827144354815,-0.5692269802353499,2.0,1.0,17.0
0.02274252017011871,-0.22077376949537295,-0.10844980484015171,-1.4541626572016115,-0.357036609884297,-0.4690025252681797,-0.4344914122355413,-0.590878081346152,-0.7665085784155506,-0.7041076101541113,-0.46749622670682367,-0.5688147485176535,-0.5331355088912153,3.0,1.0,17.0
-1.1489614016557084,-1.0783350687764124,-1.1906681510594421,-1.4541626572016115,-0.6948795295131582,-0.831653415993566,-0.8157356008100736,-0.791694814779112,-0.9474070551885535,-0.9161645591129625,-0.2547679672412378,-0.38089093596959966,-0.3346324164984757,2.0,1.0,17.0
0.12926105851792116,-0.22077376949537295,-0.047018299851356284,0.46658744252655937,-0.46098827746240806,-0.5726170654754329,-0.5434183232568363,0.45336893250523874,0.3590819437275774,0.4197942193277997,-0.6624971312169441,-0.7396545781067935,-0.7135928656118877,5.0,0.0,21.0
0.12926105851792116,-0.22077376949537295,-0.047018299851356284,0.46658744252655937,-0.7988311970912695,-0.9352679562008192,-0.8974307840760449,0.7144306859680865,0.5399804205005801,0.6530568631825359,-0.5206782915732202,-0.6371506803533095,-0.5872727159074171,5.0,0.0,21.0
-0.5098501715688936,-0.4113429471133817,-0.47396725952348867,0.46658744252655937,-0.4869761943569359,-0.5985207005272462,-0.5706500510121599,0.1119804856692071,-0.04291467132353975,0.03809171120186766,-0.6447697762614786,-0.7396545781067935,-0.7135928656118877,5.0,0.0,21.0
-0.29681309487328866,0.16036458574064455,-0.09821122067535296,0.46658744252655937,-0.4869761943569359,-0.6244243355790595,-0.5706500510121599,0.5136139525351266,0.3590819437275774,0.46220560911956987,-0.6447697762614786,-0.7396545781067935,-0.7135928656118877,5.0,0.0,21.0
0.02274252017011871,-0.030204591877364195,0.004174620972640385,0.46658744252655937,-0.40901244367335243,-0.5208097953718064,-0.46172313999086506,0.5537772992217185,0.419381435985245,0.50461699891134,-0.6447697762614786,-0.7567385610657072,-0.731638601283955,5.0,0.0,21.0
-0.08377601817768375,-0.22077376949537295,-0.0879726365105542,0.46658744252655937,-0.8767949477748526,-0.9870752263044458,-0.9791259673420161,-0.65112310137604,-0.8067082399206624,-0.7677246948417665,-0.3079500321076343,-0.39797491892851367,-0.35267815217054294,5.0,0.0,21.0
-0.616368709916696,-0.6019121247313904,-0.695120677483154,0.46658744252655937,-0.46098827746240806,-0.5985207005272462,-0.5706500510121599,0.1119804856692071,-0.022814840570983905,0.03809171120186766,-0.6624971312169441,-0.7396545781067935,-0.7135928656118877,5.0,0.0,21.0
0.12926105851792116,-0.030204591877364195,0.055367541796637054,0.46658744252655937,-0.30506077609524135,-0.3912916201127397,-0.38002795672489376,0.212388852385687,0.5198805897480244,0.292560049952489,-0.8929527456379956,-0.7909065269835353,-0.7677300726280895,5.0,0.0,21.0
-0.08377601817768375,-0.31605835830437734,-0.19035847815854753,0.46658744252655937,-0.4350003605678803,-0.5467134304236195,-0.5161865955015125,0.03165379229602318,-0.12331399433376318,-0.046731068381672805,-0.6624971312169441,-0.7396545781067935,-0.7135928656118877,5.0,0.0,21.0
0.7683722886047359,0.5415029409766621,0.6287282550253992,0.46658744252655937,-0.4350003605678803,-0.5467134304236195,-0.5161865955015125,-0.7716131414358159,-0.9273072244359976,-0.8949588642170774,-0.3788594519294963,-0.46631085076416967,-0.44290683053087926,0.0,0.0,21.0
-0.1902945565254862,0.16036458574064455,-0.047018299851356284,0.46658744252655937,-1.5005049532435195,0.8779864974261121,-0.5161865955015125,-1.6752884418841347,-0.22381314809654254,-0.6829019152582262,-0.9284074555489267,0.6612320245241533,-0.4970440375470808,5.0,0.0,21.0
0.12926105851792116,0.44621835216765765,0.3420478984110181,0.46658744252655937,-0.4869761943569359,-0.5985207005272462,-0.5706500510121599,0.051735465639319175,-0.08311433282865148,-0.00431967858990257,-0.6447697762614786,-0.7396545781067935,-0.7135928656118877,5.0,0.0,21.0
-0.08377601817768375,-0.22077376949537295,-0.16680973457950868,0.46658744252655937,-0.4869761943569359,-0.5985207005272462,-0.5706500510121599,-0.5306330613162641,-0.5052107786323244,-0.5768734407788007,-0.5206782915732202,-0.6029827144354815,-0.5872727159074171,5.0,0.0,21.0
-0.08377601817768375,0.44621835216765765,0.15775338344463039,0.46658744252655937,-0.9287707815639082,-0.8057497809417526,-0.8974307840760449,-0.7716131414358159,-0.706209086157883,-0.7677246948417665,-0.5029509366177547,-0.39797491892851367,-0.3887696235146775,5.0,0.0,21.0
-0.08377601817768375,-0.12548918068636858,-0.1319985484191906,0.46658744252655937,-0.5649399450405191,-0.5726170654754329,-0.6251135065228075,-0.631041428032744,-0.6459095939002155,-0.6829019152582262,-0.5206782915732202,-0.5346467825998257,-0.5150897732191481,5.0,0.0,21.0
0.6618537502569335,0.8273567074036752,0.8949314433101827,0.46658744252655937,-0.7728432801967416,-0.9352679562008192,-0.8974307840760449,0.7144306859680865,0.5399804205005801,0.6530568631825359,-0.5206782915732202,-0.6371506803533095,-0.5872727159074171,5.0,0.0,21.0
-0.616368709916696,-0.8877658911584035,-0.7637191913873097,0.46658744252655937,-0.5649399450405191,-0.6762316056826861,-0.6523452342781312,0.5136139525351266,0.3791817744801333,0.46220560911956987,-0.6270424213060131,-0.7225705951478795,-0.6955471299398207,5.0,0.0,21.0
-0.29681309487328866,-0.31605835830437734,-0.269195576227502,0.46658744252655937,-0.38302452677882465,-0.494906160319993,-0.46172313999086506,0.6140223192516066,0.43948126673780086,0.5682340835989955,-0.6447697762614786,-0.7567385610657072,-0.731638601283955,5.0,0.0,21.0
-0.1902945565254862,-0.12548918068636858,-0.16988130982894858,0.46658744252655937,-0.590927861935047,-0.6762316056826861,-0.6795769620334549,0.8148390526845662,0.7409787280261388,0.8227024223496168,-0.5561330014841512,-0.6029827144354815,-0.6233641872515516,5.0,0.0,21.0
0.2357795968657236,-0.030204591877364195,0.10656046262063372,0.46658744252655937,-0.6948795295131582,-0.831653415993566,-0.78850387305475,-0.048672901077160685,-0.22381314809654254,-0.13155384796521327,-0.5561330014841512,-0.6713186462711375,-0.6414099229236189,5.0,0.0,21.0
-0.5098501715688936,-0.22077376949537295,-0.3132214881361391,0.46658744252655937,-0.720867446407686,-0.15815890464642005,-0.40725968448021754,0.011572118952727242,1.9067689116743787,0.46220560911956987,-0.6802244861724096,0.16579651871564768,-0.6955471299398207,5.0,0.0,21.0
-0.5098501715688936,-0.5066275359223861,-0.558947508091323,0.46658744252655937,-0.954758698458436,-0.3653879850609264,-0.5706500510121599,0.15214383235579906,0.6605794050159154,0.48341130401545496,-0.6979518411278751,-0.5004788166819977,-0.6955471299398207,2.0,1.0,21.0
-0.29681309487328866,-0.6019121247313904,-0.45656166644332963,0.46658744252655937,-0.5129641112514637,-0.6244243355790595,-0.5706500510121599,0.5939406459083105,0.43948126673780086,0.5258226938072252,-0.6270424213060131,-0.7396545781067935,-0.6955471299398207,2.0,1.0,21.0
-0.4033316332210911,-0.4113429471133817,-0.3879631525391739,0.46658744252655937,-0.22709702541165797,-0.3653879850609264,-0.29833277345892256,0.6140223192516066,0.43948126673780086,0.5682340835989955,-0.6624971312169441,-0.7909065269835353,-0.7496843369560222,2.0,1.0,21.0
-0.29681309487328866,-0.5066275359223861,-0.4391560733631706,0.46658744252655937,-0.2790728592007135,-0.3653879850609264,-0.29833277345892256,0.5939406459083105,0.45958109749035675,0.5470283887031103,-0.7156791960833406,-0.7738225440246213,-0.7496843369560222,2.0,1.0,21.0
-0.1902945565254862,-0.4113429471133817,-0.3203884970514987,0.46658744252655937,-1.4485291194544638,-1.5569551974443385,-1.5782239779591383,-0.3298163278833044,-0.40471162486954526,-0.3648164918199496,-0.16613119246391042,-0.2442190722982879,-0.20831226679400508,1.0,1.0,21.0
-0.4033316332210911,-0.6019121247313904,-0.5077545872673264,0.46658744252655937,-0.4869761943569359,-0.5985207005272462,-0.5706500510121599,-0.008509554390568752,-0.16351365583887495,-0.089142458173443,-0.6447697762614786,-0.7225705951478795,-0.6955471299398207,2.0,1.0,21.0
-0.29681309487328866,-0.4113429471133817,-0.3203884970514987,0.46658744252655937,-0.357036609884297,-0.4690025252681797,-0.4344914122355413,0.6140223192516066,0.8213780510363622,0.6318511682866508,-0.6447697762614786,-0.7225705951478795,-0.7135928656118877,2.0,1.0,21.0
0.02274252017011871,-0.22077376949537295,-0.08080562759519391,0.46658744252655937,-0.6948795295131582,-0.831653415993566,-0.78850387305475,0.5537772992217185,0.3992816052326892,0.50461699891134,-0.5738603564396167,-0.6884026292300515,-0.6414099229236189,1.0,1.0,21.0
0.2357795968657236,-0.12548918068636858,0.055367541796637054,0.46658744252655937,-0.33104869298976913,-0.4690025252681797,-0.4344914122355413,-0.3298163278833044,-0.48511094787976866,-0.42843357650760483,-0.5915877113950823,-0.6884026292300515,-0.6594556585956861,2.0,1.0,21.0
-0.4033316332210911,-0.4113429471133817,-0.3879631525391739,0.46658744252655937,-0.4869761943569359,-0.6244243355790595,-0.5706500510121599,-0.1490812677936406,-0.3042124711067659,-0.2375823224446388,-0.6093150663505478,-0.6884026292300515,-0.6775013942677535,2.0,1.0,21.0
0.12926105851792116,-0.030204591877364195,0.0727731348767961,0.46658744252655937,0.6305042321077592,0.4894319716489126,0.5730825147114372,-0.8519398348089997,-1.027806378198777,-1.0009873386965027,2.4752446959004484,2.2500424397031535,2.44441087699988,2.0,1.0,21.0
-0.1902945565254862,-0.4113429471133817,-0.30298290397133965,0.46658744252655937,-0.7988311970912695,-0.9352679562008192,-0.9246625118313686,1.3168808862669656,1.142975343077256,1.3104334049549744,-0.2724953221967033,-0.39797491892851367,-0.3346324164984757,2.0,1.0,21.0
0.12926105851792116,-0.12548918068636858,-0.013230972107518658,0.46658744252655937,-0.6169157788295748,-0.753942510838126,-0.7068086897887786,0.2927155457588709,0.13798380544946298,0.22894296526483365,-0.6270424213060131,-0.7225705951478795,-0.6955471299398207,2.0,1.0,21.0
-0.29681309487328866,0.06507999693164018,0.014413205137439137,2.38733754225473,-1.9422995404504921,0.02316654071627311,-0.9246625118313686,-0.3298163278833044,2.429364511240831,1.3528447947467446,-1.0702262951926504,0.8320718541132931,-0.06394638141746703,2.0,1.0,21.0
0.44881667356132854,0.6367875297856664,0.6287282550253992,0.46658744252655937,-1.3705653687708808,0.38581743144165936,-0.7068086897887786,-0.570796408002856,1.846469419416711,0.5894397784948806,-0.9638621654598574,0.25121643351021766,-0.5872727159074171,3.0,1.0,21.0
-0.08377601817768375,-0.31605835830437734,-0.2005970623233463,0.46658744252655937,-0.38302452677882465,-0.494906160319993,-0.46172313999086506,-0.3699796745698964,-0.46501111712721277,-0.4708449662993751,-0.5738603564396167,-0.6713186462711375,-0.6414099229236189,2.0,1.0,21.0
0.3422981352135261,0.06507999693164018,0.20894630426862706,0.46658744252655937,-0.720867446407686,-0.5726170654754329,-0.5434183232568363,-1.2334916283316233,-1.027806378198777,-1.022193033592388,-0.3256773870630998,0.08037660392107779,-0.35267815217054294,2.0,1.0,21.0
-0.29681309487328866,-0.6019121247313904,-0.45656166644332963,0.46658744252655937,-1.0846982829310752,-1.1165934015635124,-1.1425163338739586,0.6341039925949025,0.6806792357684713,0.6954682529743061,-0.44976887175135816,-0.5175627996409117,-0.4970440375470808,2.0,1.0,21.0
-0.1902945565254862,-0.4113429471133817,-0.3132214881361391,0.46658744252655937,-1.422541202559936,-0.5467134304236195,-0.8974307840760449,-0.7716131414358159,1.7459702656539318,0.39858852443191456,-0.5384056465286857,0.16579651871564768,-0.4068153591867447,2.0,1.0,21.0
0.12926105851792116,0.16036458574064455,0.13727621511503144,0.46658744252655937,-0.357036609884297,-0.4690025252681797,-0.4344914122355413,-0.3298163278833044,-0.48511094787976866,-0.42843357650760483,-0.5915877113950823,-0.6884026292300515,-0.6594556585956861,2.0,1.0,21.0
-0.1902945565254862,-0.4113429471133817,-0.2855773108911806,0.46658744252655937,-0.40901244367335243,-0.5467134304236195,-0.4889548677461887,-0.24948963451012052,-0.3243123018593218,-0.279993712236409,-0.6270424213060131,-0.7054866121889655,-0.6775013942677535,1.0,1.0,21.0
-0.5098501715688936,-0.6019121247313904,-0.579424676420922,0.46658744252655937,-0.9287707815639082,-1.0647861314598857,-1.0335894228526636,0.9353290927443422,0.8213780510363622,0.9287308968290423,-0.39658680688496184,-0.5175627996409117,-0.4609525662029465,2.0,1.0,21.0
-0.29681309487328866,-0.5066275359223861,-0.40536874561933295,0.46658744252655937,-0.40901244367335243,-0.3394843500091131,-0.4344914122355413,0.3127972191021669,0.6002799127582478,0.48341130401545496,-0.6979518411278751,-0.7567385610657072,-0.731638601283955,1.0,1.0,21.0
-0.08377601817768375,-0.12548918068636858,-0.115616813755512,0.46658744252655937,-0.4869761943569359,-0.5985207005272462,-0.5706500510121599,-0.008509554390568752,-0.16351365583887495,-0.089142458173443,-0.6270424213060131,-0.7396545781067935,-0.6955471299398207,2.0,1.0,21.0
-1.4685170166991157,-1.4594734240124299,-1.4292271620992665,0.46658744252655937,-1.3705653687708808,-1.5051479273407118,-1.4965287946931674,0.5939406459083105,0.43948126673780086,0.5470283887031103,-0.29022267715216876,-0.39797491892851367,-0.35267815217054294,5.0,0.0,6.0
-1.5750355550469182,0.7320721185946708,-0.5251601803474854,0.46658744252655937,-0.2530849423061857,-0.31358071495729983,-0.29833277345892256,0.8750840727144542,0.7610785587786947,0.8651138121413869,-0.6270424213060131,-0.7396545781067935,-0.6955471299398207,0.0,0.0,6.0
-1.788072631742523,-1.745327190439443,-1.808054776196842,0.46658744252655937,-0.20110910851713015,-0.31358071495729983,-0.29833277345892256,0.9353290927443422,0.8012782202838065,0.9075252019331572,-0.6093150663505478,-0.7225705951478795,-0.6955471299398207,0.0,0.0,6.0
-0.8294057866123009,-1.0783350687764124,-0.9684908746832963,0.46658744252655937,-1.1366741167201304,-1.246111576822579,-1.2514432448952535,0.3931239124753508,0.29878245146990984,0.3561771346401443,-0.43204151679589264,-0.5517307655587395,-0.4970440375470808,5.0,0.0,6.0
-1.4685170166991157,-1.0783350687764124,-1.326841320451273,0.46658744252655937,1.0982867362092594,0.9816010376333653,1.0904853420625884,0.4935322791918307,0.3590819437275774,0.46220560911956987,-0.6624971312169441,-0.7567385610657072,-0.731638601283955,0.0,0.0,6.0
-1.5750355550469182,-1.5547580128214342,-1.651404438475412,0.46658744252655937,1.3841538220490652,1.2665410232033116,1.3900343473711496,0.6943490126247905,0.5399804205005801,0.6742625580784211,-0.5561330014841512,-0.6713186462711375,-0.6414099229236189,5.0,0.0,6.0
-1.3619984783513133,-1.2689042463944211,-1.309435727371114,0.46658744252655937,-1.3705653687708808,-1.4792442922888984,-1.4965287946931674,0.5738589725650145,0.3992816052326892,0.5258226938072252,-0.29022267715216876,-0.39797491892851367,-0.35267815217054294,0.0,0.0,6.0
-1.5750355550469182,-1.4594734240124299,-1.5490185968274188,0.46658744252655937,1.410141738943593,1.2665410232033116,1.3900343473711496,0.7144306859680865,0.5399804205005801,0.6742625580784211,-0.5561330014841512,-0.6542346633122235,-0.6233641872515516,5.0,0.0,6.0
-1.3619984783513133,-1.1736196575854168,-1.2756483996272763,-1.4541626572016115,1.2022384037873706,1.8364209943432046,1.9891323579882718,-1.554798401824359,-1.4097031624973384,-1.40389554171832,0.7911459751312263,1.4812632065520244,1.19925511562724,5.0,0.0,6.0
-1.5750355550469182,-1.745327190439443,-1.6851917662192497,-1.4541626572016115,1.9818759106232042,1.8623246293950177,2.0163640857435956,-1.2134099549883275,-1.4097031624973384,-1.382689846822435,1.1988751391069326,1.0370796496202608,1.1631636442831053,5.0,0.0,6.0
-1.042442863307906,-1.0783350687764124,-1.0882823094114487,0.46658744252655937,-1.3705653687708808,-1.5051479273407118,-1.4965287946931674,0.5939406459083105,0.419381435985245,0.5258226938072252,-0.29022267715216876,-0.39797491892851367,-0.35267815217054294,5.0,0.0,6.0
-1.3619984783513133,-1.2689042463944211,-1.326841320451273,0.46658744252655937,-1.344577451876353,-1.4792442922888984,-1.4965287946931674,0.5939406459083105,0.419381435985245,0.5258226938072252,-0.29022267715216876,-0.39797491892851367,-0.35267815217054294,5.0,0.0,6.0
-1.4685170166991157,-0.9830504799674079,-1.3606286481951106,0.46658744252655937,1.410141738943593,1.2665410232033116,1.3900343473711496,0.6943490126247905,0.5399804205005801,0.6530568631825359,-0.5561330014841512,-0.6713186462711375,-0.6233641872515516,5.0,0.0,6.0
-1.1489614016557084,-1.2689042463944211,-1.2346940629680792,0.46658744252655937,-1.3705653687708808,-1.4792442922888984,-1.4965287946931674,0.5537772992217185,0.419381435985245,0.5258226938072252,-0.29022267715216876,-0.39797491892851367,-0.35267815217054294,5.0,0.0,6.0
-1.5750355550469182,-1.6500426016304386,-1.651404438475412,2.38733754225473,-1.188649950509186,0.2822028912344062,-0.6795769620334549,-0.570796408002856,1.9670684039320463,0.5894397784948806,-1.265227199702771,-0.0733792427091481,-0.6053184515794844,0.0,0.0,6.0
-1.3619984783513133,-1.2689042463944211,-1.2930539927074354,0.46658744252655937,1.0203229855256761,0.8779864974261121,0.9815584310412934,0.3730422391320548,0.19828329770713057,0.3137657448483741,-0.6802244861724096,-0.7909065269835353,-0.7677300726280895,5.0,0.0,6.0
-1.5750355550469182,-1.2689042463944211,-1.4118215690191074,0.46658744252655937,-1.1366741167201304,-1.246111576822579,-1.2514432448952535,0.3931239124753508,0.23848295921224227,0.33497143974425925,-0.43204151679589264,-0.5517307655587395,-0.4970440375470808,5.0,0.0,6.0
-1.042442863307906,-1.0783350687764124,-1.0708767163312898,-1.4541626572016115,-0.40901244367335243,-0.5467134304236195,-0.5161865955015125,-0.5306330613162641,-0.706209086157883,-0.6404905254664559,2.54615411572231,2.3183783715388095,2.5165938196881483,0.0,0.0,6.0
-1.2554799400035108,-0.8877658911584035,-1.1046640440751274,0.46658744252655937,1.1762504868928427,1.629191913928698,1.335570891860502,-1.3740633417346952,-0.6459095939002155,-1.234249982551239,-0.43204151679589264,0.04620863800324989,-0.1180835884336688,0.0,0.0,6.0
-1.788072631742523,-1.745327190439443,-1.7537902801234055,0.46658744252655937,-0.22709702541165797,-0.3394843500091131,-0.29833277345892256,0.9554107660876382,0.7811783895312506,0.9075252019331572,-0.6093150663505478,-0.7225705951478795,-0.6955471299398207,0.0,0.0,6.0
-1.5750355550469182,-1.6500426016304386,-1.616593252315094,0.46658744252655937,-0.20110910851713015,-0.31358071495729983,-0.27110104570359883,0.9754924394309342,0.8213780510363622,0.9499365917249275,-0.6093150663505478,-0.7225705951478795,-0.6775013942677535,0.0,0.0,6.0
-1.5750355550469182,-1.745327190439443,-1.6851917662192497,0.46658744252655937,-0.7728432801967416,-0.9093643211490058,-0.8701990563207211,0.6742673392814945,0.5198805897480244,0.6318511682866508,-0.5384056465286857,-0.6542346633122235,-0.6053184515794844,0.0,0.0,6.0
-1.5750355550469182,-1.6500426016304386,-1.6442374295600526,0.46658744252655937,1.410141738943593,1.2665410232033116,1.3900343473711496,0.6943490126247905,0.5399804205005801,0.6530568631825359,-0.5561330014841512,-0.6713186462711375,-0.6233641872515516,5.0,0.0,6.0
-0.7228872482644985,0.16036458574064455,-0.17909603557726833,0.46658744252655937,1.7219967416779265,1.9918428046540841,1.961900630232948,-0.570796408002856,-0.18361348659143079,-0.42843357650760483,-0.29022267715216876,-0.3125550041339439,-0.31658668082640845,0.0,0.0,6.0
-1.3619984783513133,-1.1736196575854168,-1.309435727371114,0.46658744252655937,-1.3705653687708808,-1.5051479273407118,-1.4965287946931674,0.5939406459083105,0.419381435985245,0.5470283887031103,-0.29022267715216876,-0.39797491892851367,-0.35267815217054294,5.0,0.0,6.0
-1.5750355550469182,-1.6500426016304386,-1.6002115176514153,0.46658744252655937,1.3841538220490652,1.2665410232033116,1.3900343473711496,0.7144306859680865,0.5399804205005801,0.6742625580784211,-0.5561330014841512,-0.6713186462711375,-0.6414099229236189,5.0,0.0,6.0
-0.616368709916696,-0.8877658911584035,-0.7637191913873097,-1.4541626572016115,-0.4350003605678803,-0.5726170654754329,-0.5161865955015125,-0.4503063679430802,-0.6459095939002155,-0.5768734407788007,2.5638814706777757,2.3354623544977238,2.552685291032283,2.0,1.0,6.0
-1.3619984783513133,-1.2689042463944211,-1.326841320451273,0.46658744252655937,-1.9163116235559643,-2.023220628376978,-2.0956268053102898,-0.570796408002856,-0.706209086157883,-0.6829019152582262,0.5606903607101749,0.5074761778939274,0.603745838449021,1.0,1.0,6.0
-1.5750355550469182,-1.745327190439443,-1.6851917662192497,0.46658744252655937,1.0722988193147318,0.955697402581552,1.0632536143072646,0.3931239124753508,0.23848295921224227,0.33497143974425925,-0.6802244861724096,-0.7738225440246213,-0.7496843369560222,2.0,1.0,6.0
-1.5750355550469182,-1.745327190439443,-1.6851917662192497,-1.4541626572016115,-0.38302452677882465,-0.5467134304236195,-0.4889548677461887,-0.711368121405928,-0.8871075629308858,-0.8525474744253071,2.4575173409449826,2.2329584567442398,2.4263651413278122,2.0,1.0,6.0
-1.5750355550469182,-1.4594734240124299,-1.436394171014626,0.46658744252655937,-1.1106861998256026,-1.246111576822579,-1.22421151713993,0.3931239124753508,0.21838312845968644,0.3137657448483741,-0.43204151679589264,-0.5517307655587395,-0.5150897732191481,2.0,1.0,6.0
-0.8294057866123009,-0.9830504799674079,-0.9387989806053784,0.46658744252655937,1.8519363261505652,1.7069028190841378,1.852973719211653,0.5537772992217185,0.3791817744801333,0.48341130401545496,-0.41431416184042713,-0.5175627996409117,-0.47899830187501374,2.0,1.0,6.0
-1.3619984783513133,-1.4594734240124299,-1.3985114096048687,0.46658744252655937,1.1762504868928427,1.0593119427888054,1.1721805253285595,0.6943490126247905,0.5399804205005801,0.6530568631825359,-0.6270424213060131,-0.7225705951478795,-0.6955471299398207,2.0,1.0,6.0
-1.5750355550469182,-1.745327190439443,-1.6851917662192497,0.46658744252655937,-0.7728432801967416,-0.8834606860971925,-0.8701990563207211,0.6742673392814945,0.4997807589954685,0.6318511682866508,-0.5384056465286857,-0.6542346633122235,-0.6233641872515516,2.0,1.0,6.0
-1.4685170166991157,-1.5547580128214342,-1.497825676003422,0.46658744252655937,-1.8903237066614365,-1.9973169933251644,-2.041163349799642,-0.55071473465956,-0.706209086157883,-0.661696220362341,0.525235650799244,0.37080431422261545,0.45937995307248297,2.0,1.0,6.0
-1.3619984783513133,-0.7924813023493992,-0.9275365380240992,0.46658744252655937,2.0858275782013154,1.9659391696022712,2.1252909967648907,1.035737459460822,1.002276527809365,1.1407878457878935,-0.09522177264204838,-0.1758831404626319,-0.10003785276160154,2.0,1.0,6.0
-1.3619984783513133,-1.3641888352034255,-1.4292271620992665,0.46658744252655937,-1.8903237066614365,-1.9973169933251644,-2.041163349799642,-0.6109597546894481,-0.7665085784155506,-0.7253133050499965,0.5961450706211059,0.45622422901718546,0.5496086314328191,2.0,1.0,6.0
-1.042442863307906,-0.9830504799674079,-1.0882823094114487,0.46658744252655937,1.7219967416779265,1.5773846438250716,1.7440468081903582,-0.008509554390568752,-0.16351365583887495,-0.089142458173443,-0.44976887175135816,-0.5688147485176535,-0.5150897732191481,2.0,1.0,6.0
-1.4685170166991157,-1.2689042463944211,-1.3954398343554288,0.46658744252655937,1.0982867362092594,0.9816010376333653,1.0904853420625884,0.47345060584853466,0.3590819437275774,0.46220560911956987,-0.6624971312169441,-0.7738225440246213,-0.731638601283955,1.0,1.0,6.0
-1.042442863307906,-1.0783350687764124,-1.0411848222533717,0.46658744252655937,1.7739725754669822,1.629191913928698,1.7985102637010058,0.3931239124753508,0.23848295921224227,0.33497143974425925,-0.44976887175135816,-0.5688147485176535,-0.5331355088912153,3.0,1.0,6.0
-1.3619984783513133,-1.3641888352034255,-1.3370799046160726,0.46658744252655937,2.1118154950958434,1.9659391696022712,2.1252909967648907,1.236554192893782,1.0625760200670324,1.2256106253714338,0.011142357090744664,-0.12463119158588991,-0.06394638141746703,2.0,1.0,6.0
-1.5750355550469182,-1.1736196575854168,-1.193739726308882,0.46658744252655937,1.124274653103787,1.033408307736992,1.1177170698179122,0.5136139525351266,0.4997807589954685,0.50461699891134,-0.6447697762614786,-0.7396545781067935,-0.731638601283955,2.0,1.0,6.0
-1.5750355550469182,-1.6500426016304386,-1.633998845395253,0.46658744252655937,-1.344577451876353,-1.4792442922888984,-1.4965287946931674,0.5738589725650145,0.419381435985245,0.5258226938072252,-0.29022267715216876,-0.41505890188742767,-0.35267815217054294,2.0,1.0,6.0
-1.1489614016557084,-1.1736196575854168,-1.2418610718834386,0.46658744252655937,-1.344577451876353,-1.453340657237085,-1.4692970669378436,0.7947573793412702,0.6404795742633596,0.7590853376619614,-0.2547679672412378,-0.36380695301068566,-0.31658668082640845,3.0,1.0,6.0
-1.4685170166991157,-1.6500426016304386,-1.5828059245712565,0.46658744252655937,0.9943350686311483,0.8520828623742988,0.9543267032859696,0.25255219907227894,0.07768431319179542,0.18653157547306343,-0.6979518411278751,-0.8079905099424493,-0.7677300726280895,2.0,1.0,6.0
-0.8294057866123009,-0.7924813023493992,-0.8323177052914654,0.46658744252655937,1.8259484092560376,1.7069028190841378,1.852973719211653,0.5336956258784227,0.3992816052326892,0.50461699891134,-0.43204151679589264,-0.5175627996409117,-0.47899830187501374,2.0,1.0,6.0
-1.3619984783513133,-0.22077376949537295,-1.2070498857231207,0.46658744252655937,2.0858275782013154,1.9659391696022712,2.1252909967648907,1.216472519550486,1.0826758508195884,1.1831992355796639,-0.024312352820186355,-0.1587991575037179,-0.08199211708953429,3.0,1.0,6.0
-1.2554799400035108,-1.2689042463944211,-1.2582428065471174,0.46658744252655937,0.9943350686311483,0.8520828623742988,0.9543267032859696,0.23247052572898297,0.11788397469690713,0.18653157547306343,-0.7156791960833406,-0.7909065269835353,-0.7677300726280895,2.0,1.0,6.0
-0.9359243249601034,-1.1736196575854168,-1.0708767163312898,0.46658744252655937,2.1118154950958434,1.9659391696022712,2.1252909967648907,1.176309172863894,1.002276527809365,1.1407878457878935,-0.042039707775651865,-0.1758831404626319,-0.10003785276160154,3.0,1.0,6.0
-0.9359243249601034,-0.12548918068636858,-0.5251601803474854,-1.4541626572016115,-0.40901244367335243,-0.5467134304236195,-0.5161865955015125,-0.4904697146296722,-0.6861092554053273,-0.6192848305705709,2.5638814706777757,2.3354623544977238,2.534639555360216,2.0,1.0,6.0
-1.4685170166991157,-1.4594734240124299,-1.5244459948319002,0.46658744252655937,-1.9422995404504921,-2.049124263428791,-2.0956268053102898,-0.570796408002856,-0.7263089169104389,-0.6829019152582262,0.6670544904429679,0.5074761778939274,0.6217915741210881,2.0,1.0,6.0
-1.1489614016557084,-0.6019121247313904,-0.9684908746832963,0.46658744252655937,1.644032990994343,1.8623246293950177,1.852973719211653,-0.5105513879729681,1.142975343077256,0.4197942193277997,-0.5561330014841512,-0.39797491892851367,-0.47899830187501374,2.0,1.0,6.0
-1.5750355550469182,-1.6500426016304386,-1.6677861731390906,0.46658744252655937,-0.7728432801967416,-0.8834606860971925,-0.8701990563207211,0.6742673392814945,0.5198805897480244,0.6318511682866508,-0.5384056465286857,-0.6542346633122235,-0.6233641872515516,2.0,1.0,6.0
-1.2554799400035108,-1.3641888352034255,-1.3606286481951106,0.46658744252655937,-1.8903237066614365,-1.9973169933251644,-2.041163349799642,-0.55071473465956,-0.706209086157883,-0.661696220362341,0.5075082958437784,0.37080431422261545,0.45937995307248297,2.0,1.0,6.0
-1.1489614016557084,-1.1736196575854168,-1.173262557979283,0.46658744252655937,-0.7728432801967416,-0.9093643211490058,-0.8701990563207211,0.6742673392814945,0.4997807589954685,0.6318511682866508,-0.5384056465286857,-0.6542346633122235,-0.6233641872515516,2.0,1.0,6.0
-1.042442863307906,-1.2689042463944211,-1.173262557979283,0.46658744252655937,-0.8508070308803247,-0.9870752263044458,-0.9791259673420161,0.19230717904239103,0.057584482439239554,0.16532588057717834,-0.5384056465286857,-0.5858987314765675,-0.6233641872515516,2.0,1.0,6.0
0.7683722886047359,0.5415029409766621,0.6358952639407595,-1.4541626572016115,-0.8767949477748526,-0.831653415993566,-0.8701990563207211,-0.9322665281821837,0.057584482439239554,-0.2587880173405239,-0.5384056465286857,-0.2271350893393739,-0.5150897732191481,0.0,0.0,5.0
0.6618537502569335,0.3509337633586533,0.49869823613244807,-1.4541626572016115,-0.1491332747280746,-0.31358071495729983,-0.24386931794827513,-1.635125095197543,-1.8317996083010113,-1.8280094396360222,0.9152374598194848,0.7295679563598092,0.8563861378579622,5.0,0.0,5.0
0.7683722886047359,0.5415029409766621,0.6696825916845971,0.46658744252655937,0.6305042321077592,0.46352833659709936,0.5730825147114372,0.8550023993711582,0.6806792357684713,0.8227024223496168,-0.6447697762614786,-0.7738225440246213,-0.731638601283955,5.0,0.0,5.0
0.3422981352135261,-0.030204591877364195,0.15775338344463039,-1.4541626572016115,-1.1106861998256026,-1.246111576822579,-1.22421151713993,-1.1531649349584394,-1.3293038394871148,-1.2978670672388943,1.6952410778599665,1.5154311724698524,1.6684442431009883,0.0,0.0,5.0
0.9814093653003408,0.8273567074036752,0.9594345235484181,0.46658744252655937,0.6305042321077592,0.46352833659709936,0.5730825147114372,0.8550023993711582,0.6806792357684713,0.8227024223496168,-0.6447697762614786,-0.7738225440246213,-0.731638601283955,5.0,0.0,5.0
0.7683722886047359,0.7320721185946708,0.7515912650029914,-1.4541626572016115,-0.46098827746240806,-0.5985207005272462,-0.5434183232568363,0.8349207260278623,0.6806792357684713,0.8227024223496168,-0.5561330014841512,-0.6884026292300515,-0.6414099229236189,5.0,0.0,5.0
1.0879279036481433,0.7320721185946708,0.9430527888847395,-1.4541626572016115,-0.1491332747280746,-0.31358071495729983,-0.24386931794827513,-1.635125095197543,-1.8317996083010113,-1.8280094396360222,0.9152374598194848,0.7295679563598092,0.8563861378579622,5.0,0.0,5.0
0.6618537502569335,0.3509337633586533,0.4853880767182094,2.38733754225473,1.0203229855256761,0.8520828623742988,0.9815584310412934,0.9955741127742301,0.8012782202838065,0.9499365917249275,2.652518245455103,2.4208822692922936,2.624868233720552,5.0,0.0,5.0
1.0879279036481433,0.8273567074036752,0.9942457097087362,-1.4541626572016115,-0.6429036957241027,-0.8057497809417526,-0.7612721452994262,0.011572118952727242,-0.18361348659143079,-0.089142458173443,-0.5561330014841512,-0.6884026292300515,-0.6414099229236189,5.0,0.0,5.0
0.7683722886047359,4.162317315718828,2.0416528697677085,2.38733754225473,0.8124196503694537,0.6707574170116056,0.7637046089987034,0.25255219907227894,0.07768431319179542,0.16532588057717834,2.776609730143362,2.5404701500046913,2.76923411909709,5.0,0.0,5.0
0.6618537502569335,0.3509337633586533,0.4853880767182094,-1.4541626572016115,-0.1491332747280746,-0.31358071495729983,-0.24386931794827513,-1.635125095197543,-1.8317996083010113,-1.8280094396360222,0.9152374598194848,0.7295679563598092,0.8563861378579622,5.0,0.0,5.0
0.8748908269525384,0.6367875297856664,0.7382811055887528,-1.4541626572016115,-0.4350003605678803,-0.5985207005272462,-0.5434183232568363,0.8550023993711582,0.6806792357684713,0.8227024223496168,-0.5561330014841512,-0.6884026292300515,-0.6414099229236189,5.0,0.0,5.0
0.44881667356132854,0.16036458574064455,0.27754481817278276,-1.4541626572016115,-1.812359955977853,0.5671428768043525,-0.9246625118313686,-1.1732466083017354,2.6705624802715016,-0.06793676327755793,-0.7688612609497372,1.3445913428807124,0.00823656127080181,0.0,0.0,5.0
1.0879279036481433,0.8273567074036752,1.0454386305327328,-1.4541626572016115,-0.5649399450405191,-0.7021352407344994,-0.6795769620334549,0.9554107660876382,0.8012782202838065,0.9287308968290423,-0.5029509366177547,-0.6200666973943955,-0.5692269802353499,5.0,0.0,5.0
1.0879279036481433,0.8273567074036752,1.0280330374525737,-1.4541626572016115,-0.1491332747280746,-0.2876770799054865,-0.21663759019295134,-1.635125095197543,-1.8317996083010113,-1.8280094396360222,0.9152374598194848,0.7466519393187232,0.8563861378579622,5.0,0.0,5.0
0.44881667356132854,0.44621835216765765,0.49869823613244807,2.38733754225473,1.0203229855256761,0.8520828623742988,0.9815584310412934,0.9955741127742301,0.8012782202838065,0.9499365917249275,2.652518245455103,2.4208822692922936,2.624868233720552,5.0,0.0,5.0
1.0879279036481433,0.8273567074036752,1.0454386305327328,-1.4541626572016115,-0.17512119162260234,-0.31358071495729983,-0.24386931794827513,-1.5949617485109508,-1.7715001160433437,-1.7643923549483669,1.4470581084834495,1.2591714280861426,1.4158039436920469,0.0,0.0,5.0
0.2357795968657236,0.2556491745496489,0.2601392250926237,-1.4541626572016115,-0.1491332747280746,-0.31358071495729983,-0.24386931794827513,-1.635125095197543,-1.8317996083010113,-1.8280094396360222,0.9152374598194848,0.7295679563598092,0.8563861378579622,5.0,0.0,5.0
1.0879279036481433,0.6367875297856664,0.8744542749805838,2.38733754225473,1.0203229855256761,0.8520828623742988,0.9815584310412934,0.9955741127742301,0.8213780510363622,0.9499365917249275,2.652518245455103,2.4037982863333793,2.624868233720552,5.0,0.0,5.0
0.5553352119091309,0.6367875297856664,0.6358952639407595,-1.4541626572016115,-0.46098827746240806,-0.5985207005272462,-0.5434183232568363,0.8550023993711582,0.6806792357684713,0.8227024223496168,-0.5738603564396167,-0.6884026292300515,-0.6414099229236189,5.0,0.0,5.0
0.7683722886047359,0.9226412962126795,0.8918598680607428,-1.4541626572016115,-0.1491332747280746,-0.31358071495729983,-0.24386931794827513,-1.635125095197543,-1.8317996083010113,-1.8280094396360222,0.8975101048640193,0.7295679563598092,0.8563861378579622,5.0,0.0,5.0
0.5553352119091309,0.6367875297856664,0.5498911569564447,-1.4541626572016115,-0.1491332747280746,-0.2876770799054865,-0.24386931794827513,-1.635125095197543,-1.8317996083010113,-1.8280094396360222,0.8975101048640193,0.7295679563598092,0.8563861378579622,5.0,0.0,5.0
0.6618537502569335,0.44621835216765765,0.6010840777804414,-1.4541626572016115,-0.46098827746240806,-0.5985207005272462,-0.5434183232568363,0.8550023993711582,0.7007790665210271,0.8227024223496168,-0.5738603564396167,-0.6884026292300515,-0.6414099229236189,5.0,0.0,5.0
0.5553352119091309,0.3509337633586533,0.4239565717294125,-1.4541626572016115,-0.46098827746240806,-0.5985207005272462,-0.5434183232568363,0.8550023993711582,0.6806792357684713,0.8014967274537317,-0.5738603564396167,-0.6713186462711375,-0.6414099229236189,5.0,0.0,5.0
1.1944464419959457,1.58963341787571,1.4478149882093458,-1.4541626572016115,-0.38302452677882465,-0.3394843500091131,-0.40725968448021754,-1.5748800751676548,-1.5504019777652291,-1.6159524906771712,1.4470581084834495,1.6350190531822504,1.6684442431009883,5.0,0.0,5.0
1.9400762104305629,1.3990642402577014,1.6935410081645306,0.46658744252655937,1.4361296558381205,1.292444658255125,1.4444978028817967,0.6140223192516066,0.45958109749035675,0.5682340835989955,-0.5561330014841512,-0.6713186462711375,-0.6233641872515516,5.0,0.0,5.0
1.1944464419959457,0.8273567074036752,0.9942457097087362,-1.4541626572016115,-0.1491332747280746,-0.31358071495729983,-0.24386931794827513,-1.635125095197543,-1.8317996083010113,-1.8280094396360222,0.8975101048640193,0.7295679563598092,0.8563861378579622,5.0,0.0,5.0
0.5553352119091309,0.2556491745496489,0.43931444797661207,-1.4541626572016115,1.254214237576426,1.0852155778406185,1.2266439808392071,-0.16916294113693653,-0.3444121326118777,-0.279993712236409,-0.5738603564396167,-0.6884026292300515,-0.6414099229236189,5.0,0.0,5.0
1.3009649803437482,1.017925885021684,1.2328047207485604,0.46658744252655937,0.6305042321077592,0.46352833659709936,0.5730825147114372,0.8750840727144542,0.6806792357684713,0.8227024223496168,-0.6447697762614786,-0.7738225440246213,-0.731638601283955,5.0,0.0,5.0
0.5553352119091309,0.5415029409766621,0.5335094222927661,-1.4541626572016115,-0.1491332747280746,-0.2876770799054865,-0.24386931794827513,-1.635125095197543,-1.8317996083010113,-1.8280094396360222,0.9152374598194848,0.7295679563598092,0.8563861378579622,5.0,0.0,5.0
1.1944464419959457,0.9226412962126795,1.0454386305327328,-1.4541626572016115,-0.1491332747280746,-0.2876770799054865,-0.21663759019295134,-1.635125095197543,-1.8317996083010113,-1.8280094396360222,0.9152374598194848,0.7466519393187232,0.8744318735300295,5.0,0.0,5.0
0.44881667356132854,0.16036458574064455,0.27754481817278276,-1.4541626572016115,-0.6948795295131582,0.38581743144165936,-0.7068086897887786,-0.1490812677936406,0.17818346695457468,-0.21637662754875367,-1.017044230326254,-0.5004788166819977,-0.6053184515794844,0.0,0.0,5.0
1.0879279036481433,1.1132104738306883,1.2502103138287195,-1.4541626572016115,-0.1491332747280746,-0.2876770799054865,-0.21663759019295134,-1.635125095197543,-1.8317996083010113,-1.8280094396360222,0.9152374598194848,0.7466519393187232,0.8744318735300295,5.0,0.0,5.0
0.9814093653003408,0.6367875297856664,0.7894740264127494,-1.4541626572016115,-0.1491332747280746,-0.31358071495729983,-0.24386931794827513,-1.635125095197543,-1.8317996083010113,-1.8280094396360222,0.9152374598194848,0.7295679563598092,0.8563861378579622,5.0,0.0,5.0
1.0879279036481433,1.58963341787571,1.2839976415725571,0.46658744252655937,1.0722988193147318,0.9297937675297387,1.0360218865519408,-1.554798401824359,-1.7313004545382322,-1.743186660052482,1.4825128183943805,1.2933393940039706,1.4518954150361814,2.0,1.0,5.0
0.3422981352135261,0.3509337633586533,0.32873773899677944,-1.4541626572016115,-0.46098827746240806,-0.5985207005272462,-0.5434183232568363,0.8349207260278623,0.6605794050159154,0.8014967274537317,-0.5561330014841512,-0.6884026292300515,-0.6414099229236189,2.0,1.0,5.0
0.6618537502569335,0.3509337633586533,0.49869823613244807,-1.4541626572016115,-0.7988311970912695,-0.9352679562008192,-0.9246625118313686,0.8951657460577502,0.7409787280261388,0.8651138121413869,-0.44976887175135816,-0.5688147485176535,-0.5150897732191481,2.0,1.0,5.0
1.1944464419959457,0.8273567074036752,0.9973172849581761,0.46658744252655937,-1.5524807870325752,-1.712377007755218,-1.7143826167357572,-0.6109597546894481,-0.8067082399206624,-0.7465189999458816,1.8902419823700871,1.6691870191000782,1.8489015998216607,2.0,1.0,5.0
0.9814093653003408,0.6367875297856664,0.8406669472367462,-1.4541626572016115,-0.46098827746240806,-0.5985207005272462,-0.5434183232568363,0.8349207260278623,0.6806792357684713,0.8014967274537317,-0.5738603564396167,-0.6884026292300515,-0.6414099229236189,2.0,1.0,5.0
0.7683722886047359,0.8273567074036752,0.8744542749805838,-1.4541626572016115,-0.40901244367335243,-0.5467134304236195,-0.5161865955015125,1.6181059864164054,1.4444728043655939,1.628518828393251,-0.18385854741937574,-0.3125550041339439,-0.26244947381020667,2.0,1.0,5.0
1.3009649803437482,0.9226412962126795,1.0997031266061694,0.46658744252655937,1.1502625699983149,1.0075046726851786,1.1177170698179122,-1.5949617485109508,-1.7915999467958996,-1.7855980498442519,1.0393289445077432,0.866239820031121,0.982706287562433,2.0,1.0,5.0
1.4074835186915506,1.303779651448697,1.3525961554767127,0.46658744252655937,1.0203229855256761,0.8520828623742988,0.9815584310412934,-1.554798401824359,-1.751400285290788,-1.743186660052482,1.500240173349846,1.2933393940039706,1.4518954150361814,2.0,1.0,5.0
1.1944464419959457,0.8273567074036752,1.0280330374525737,-1.4541626572016115,-0.17512119162260234,-0.31358071495729983,-0.24386931794827513,-1.635125095197543,-1.8317996083010113,-1.8280094396360222,0.8975101048640193,0.7295679563598092,0.8563861378579622,2.0,1.0,5.0
1.0879279036481433,1.3990642402577014,1.1304188791005672,-1.4541626572016115,1.514093406521704,1.3701555634105649,1.4989612583924443,-0.43022469459978424,-0.6057099323951037,-0.5556677458829155,-0.41431416184042713,-0.5346467825998257,-0.47899830187501374,3.0,1.0,5.0
0.7683722886047359,0.8273567074036752,0.8887882928113029,-1.4541626572016115,-0.40901244367335243,-0.5467134304236195,-0.4889548677461887,1.6181059864164054,1.4444728043655939,1.628518828393251,-0.18385854741937574,-0.3296389870928577,-0.26244947381020667,2.0,1.0,5.0
0.3422981352135261,0.3509337633586533,0.3113321459166204,-1.4541626572016115,-0.46098827746240806,-0.5985207005272462,-0.5434183232568363,0.8349207260278623,0.6806792357684713,0.8014967274537317,-0.5738603564396167,-0.6884026292300515,-0.6414099229236189,2.0,1.0,5.0
0.6618537502569335,0.8273567074036752,0.7894740264127494,-1.4541626572016115,-0.4350003605678803,-0.5985207005272462,-0.5434183232568363,0.8550023993711582,0.7007790665210271,0.8227024223496168,-0.5738603564396167,-0.6884026292300515,-0.6414099229236189,2.0,1.0,5.0
0.8748908269525384,0.7320721185946708,0.7720684333325905,-1.4541626572016115,-0.6948795295131582,-0.8575570510453792,-0.8157356008100736,0.4132055858186468,0.23848295921224227,0.33497143974425925,-0.5738603564396167,-0.6884026292300515,-0.6414099229236189,2.0,1.0,5.0
1.3009649803437482,1.017925885021684,1.1642062068444048,2.38733754225473,1.046310902420204,0.9038901324779255,1.0360218865519408,2.260719533401877,2.067567557694826,2.2858953701656897,0.9152374598194848,0.7466519393187232,0.8744318735300295,3.0,1.0,5.0
0.9814093653003408,0.6367875297856664,0.8406669472367462,2.38733754225473,1.0722988193147318,0.9297937675297387,1.0360218865519408,0.9152474194010463,0.7208788972735829,0.8651138121413869,2.670245600410569,2.4208822692922936,2.642913969392619,3.0,1.0,5.0
0.6618537502569335,0.6367875297856664,0.6358952639407595,-1.4541626572016115,-0.46098827746240806,-0.5985207005272462,-0.5434183232568363,0.8349207260278623,0.6806792357684713,0.8014967274537317,-0.5738603564396167,-0.6884026292300515,-0.6414099229236189,2.0,1.0,5.0
1.3009649803437482,0.9226412962126795,1.0966315513567295,-1.4541626572016115,1.410141738943593,1.3960591984623782,1.526192986147768,-0.9523482015254797,-0.28411264035421013,-0.6192848305705709,-0.5384056465286857,-0.3125550041339439,-0.44290683053087926,3.0,1.0,5.0
1.3009649803437482,0.9226412962126795,1.0997031266061694,-1.4541626572016115,1.5400813234162318,1.3960591984623782,1.553424713903092,-0.5306330613162641,-0.706209086157883,-0.661696220362341,-0.3611320969740308,-0.4833948337230837,-0.424861094858812,3.0,1.0,5.0
1.3009649803437482,1.2084950626396926,1.2839976415725571,0.46658744252655937,0.890383401053037,0.7225646871152324,0.8453997922646748,2.280801206745173,2.1077672191999373,2.3071010650615746,0.9506921697304156,0.7637359222776371,0.8924776092020967,3.0,1.0,5.0
-0.616368709916696,-0.6971967135403948,-0.6818105180689152,0.46658744252655937,-0.590927861935047,-0.7280388757863127,-0.7068086897887786,-0.12899959445034462,-0.3243123018593218,-0.2375823224446388,2.6347908904996378,2.4037982863333793,2.606822498048485,5.0,0.0,3.0
-1.4685170166991157,-1.5547580128214342,-1.5142074106671006,0.46658744252655937,-1.0327224491420195,-0.028640729387353472,-0.5706500510121599,0.9554107660876382,2.1278670499524934,2.0102213365191828,-0.6447697762614786,1.6008510872644224,0.7120202524814243,0.0,0.0,3.0
-1.2554799400035108,-1.3641888352034255,-1.2930539927074354,0.46658744252655937,-0.954758698458436,-0.6762316056826861,-0.7612721452994262,1.9795761065957327,2.0474677269422696,2.179866895686264,0.7379639102648298,0.9516597348256909,0.982706287562433,0.0,0.0,3.0
-0.29681309487328866,-0.31605835830437734,-0.2855773108911806,0.46658744252655937,-0.5649399450405191,-0.7021352407344994,-0.6795769620334549,-0.12899959445034462,-0.3042124711067659,-0.21637662754875367,2.6347908904996378,2.4037982863333793,2.624868233720552,5.0,0.0,3.0
