Min_hr,Max_hr,Mean_hr,Men_acc_sqrt,Min_acc_x,Max_acc_x,Mean_acc_x,Min_acc_y,Max_acc_y,Mean_acc_y,Min_acc_z,Max_acc_z,Mean_acc_z,Etiquetas multiclase,Etiquetas binarias,ID
0.1427607169207786,-0.07998052799363067,0.03889757624783059,0.4310041390206618,0.5970813214372461,0.40899861957093187,0.5367159844274862,0.6946624898957862,0.4875909364784817,0.6265369185772326,-0.7137563701528374,-0.8115471942602942,-0.7730493167201126,0.0,0.0,0.0
0.1427607169207786,0.36644981235373236,0.21131524070880048,0.4310041390206618,-0.2687252287276504,-0.405546879628693,-0.3661720280180213,-0.7090601805210435,-0.8851977236906915,-0.8398966455916234,-0.4682640395599557,-0.5796025903899729,-0.5263325150955502,0.0,0.0,0.0
0.04596946162028667,-0.1692665960631033,-0.08358491763154677,0.4310041390206618,0.5970813214372461,0.45836501346181824,0.5632715142052953,0.12131097662694028,-0.04191326101534226,0.039963492909690215,-0.7704084464435025,-0.8115471942602942,-0.8299839632488578,0.0,0.0,0.0
0.23955197222127056,0.18787767621478715,0.22733218221610388,0.4310041390206618,-0.31965502579617383,-0.45491327351957944,-0.4192830875736394,-0.7881431478684706,-0.9636427899860729,-0.9236928492584152,-0.41161196326929067,-0.526076912573745,-0.46939786856680515,0.0,0.0,0.0
0.04596946162028667,0.5450219484926776,0.5410758011532787,0.4310041390206618,-0.31965502579617383,-0.45491327351957944,-0.4192830875736394,-0.7683724060316138,-0.9440315234122275,-0.9236928492584152,-0.41161196326929067,-0.526076912573745,-0.4883760840763867,0.0,0.0,0.0
0.23955197222127056,-0.07998052799363067,0.08600622773989891,0.4310041390206618,2.0995103349586843,1.9146736332429657,2.130047771096029,-0.7288309223579003,-0.8655864571168461,-0.8817947474250193,0.0982567233466942,-0.02650391962228361,0.043013950191901344,0.0,0.0,0.0
0.4331344828222544,0.18787767621478715,0.31212775490182737,0.4310041390206618,-1.0072072862212387,-1.0473100002102158,-1.0566158022410563,-0.43226979480504885,-0.5910287250830115,-0.5466099327578522,-0.3738439124088475,-0.45470934215210757,-0.4314414375476417,0.0,0.0,0.0
0.1427607169207786,1.3485965611179311,0.7926360001209237,0.4310041390206618,0.5461515243687228,0.3596322256800455,0.48360492487186824,0.3190183949955079,0.11497687157542039,0.22850495115997171,-0.7515244210132808,-0.8650728720765222,-0.8299839632488578,0.0,0.0,0.0
-0.24440430428118914,-0.07998052799363067,-0.08641143672107097,0.4310041390206618,1.3355633789308345,1.1741777248796703,1.3068263479839488,-0.35318682745762187,-0.4733611256399396,-0.42091562725766457,-0.5438001412808424,-0.5974444829953822,-0.6022453771338772,0.0,0.0,0.0
0.23955197222127056,0.18787767621478715,0.19624047223133895,0.4310041390206618,-0.2687252287276504,-0.405546879628693,-0.3661720280180213,-0.7090601805210435,-0.8851977236906915,-0.8398966455916234,-0.4682640395599557,-0.5617606977845635,-0.5263325150955502,0.0,0.0,0.0
0.5299257381227463,0.27716374428425977,0.39974984667707375,0.4310041390206618,2.2268348276299927,2.6058031477153745,2.554936247540974,-0.3334160856207651,1.3700979323015217,0.6055878676605346,0.003836596195585993,0.6336461067778617,0.23279610528771863,0.0,0.0,0.0
-0.43798681488217306,0.09859160814531454,-0.2126626227198144,0.4310041390206618,1.411958074533619,1.2235441187705567,1.3864929373173756,-0.45204053664190563,-0.6302512582307022,-0.588508034591248,-0.4682640395599557,-0.5796025903899729,-0.5263325150955502,0.0,0.0,0.0
-0.6315693254831569,-0.4371248002715211,-0.6206235446411259,0.4310041390206618,1.411958074533619,1.2235441187705567,1.3864929373173756,-0.45204053664190563,-0.6302512582307022,-0.588508034591248,-0.4682640395599557,-0.5796025903899729,-0.5263325150955502,0.0,0.0,0.0
-0.534778070182665,-0.34783873220204853,-0.4792975901649209,0.4310041390206618,-0.31965502579617383,-0.45491327351957944,-0.4192830875736394,-0.7683724060316138,-0.9440315234122275,-0.9236928492584152,-0.41161196326929067,-0.526076912573745,-0.4883760840763867,0.0,0.0,0.0
-0.3411955595816811,-0.07998052799363067,-0.11844531973567775,0.4310041390206618,1.1827739877252643,1.0013953462615681,1.1474931693170942,0.2597061694849376,0.056143071853884396,0.16565779840987788,-0.6571042938621724,-0.7758634090494755,-0.7350928857009491,0.0,0.0,0.0
0.23955197222127056,0.009305540075841931,0.1020231692472023,0.4310041390206618,2.175905030561469,1.964040027133852,2.183158830651647,-0.590435729499903,-0.7675301242476195,-0.7142023400914357,0.06048867248625105,-0.08002959743851165,0.005057519172737869,0.0,0.0,0.0
0.23955197222127056,-0.07998052799363067,0.08600622773989891,0.4310041390206618,0.5461515243687228,0.3596322256800455,0.48360492487186824,0.2992476531586511,0.09536560500157507,0.20755590024327378,-0.7515244210132808,-0.8650728720765222,-0.8299839632488578,0.0,0.0,0.0
-0.6315693254831569,0.7235940846316228,-0.16555397122774607,0.4310041390206618,1.3355633789308345,1.1494945279342272,1.3068263479839488,-0.31364534378390835,-0.49297239221378497,-0.4418646781743624,-0.5249161158506208,-0.6509701608116102,-0.6022453771338772,0.0,0.0,0.0
0.04596946162028667,0.27716374428425977,0.13311487923196724,0.4310041390206618,1.3610282774650961,2.4083375721518294,2.130047771096029,-1.2824116937898895,0.2718670041661831,-0.8398966455916234,-0.6571042938621724,0.9191163884644111,0.1568832432493918,1.0,1.0,0.0
-0.24440430428118914,-0.1692665960631033,-0.1495370297204427,0.4310041390206618,0.5461515243687228,0.3596322256800455,0.48360492487186824,0.3190183949955079,0.11497687157542039,0.22850495115997171,-0.7704084464435025,-0.8472309794711128,-0.8299839632488578,1.0,1.0,0.0
-0.14761304898069721,-0.2585526641325759,-0.18062873970520762,0.4310041390206618,0.5970813214372461,0.4336818165163751,0.5632715142052953,0.12131097662694028,-0.06152452758918758,0.039963492909690215,-0.7515244210132808,-0.8472309794711128,-0.8299839632488578,1.0,1.0,0.0
0.23955197222127056,0.009305540075841931,0.14253660953038036,0.4310041390206618,0.5970813214372461,0.40899861957093187,0.5367159844274862,0.6946624898957862,0.4875909364784817,0.6265369185772326,-0.7137563701528374,-0.8115471942602942,-0.7730493167201126,1.0,1.0,0.0
-0.43798681488217306,0.09859160814531454,-0.2154891418093386,0.4310041390206618,-0.2941901272619121,-0.45491327351957944,-0.39272755779583035,0.8528284245906402,0.6444810690692444,0.7941293259108162,-0.6004522175715075,-0.7044958386278383,-0.6781582391722041,1.0,1.0,0.0
0.23955197222127056,1.3485965611179311,0.839744651612992,0.4310041390206618,-0.24326033019338875,-0.3808636826832498,-0.33961649824021223,-0.7090601805210435,-0.8851977236906915,-0.8608456965083213,-0.4682640395599557,-0.5796025903899729,-0.5263325150955502,1.0,1.0,0.0
-0.24440430428118914,-0.34783873220204853,-0.26353996633124743,0.4310041390206618,-0.31965502579617383,-0.47959647046502263,-0.4192830875736394,0.9121406501012106,0.7229261353646258,0.877925529577608,-0.5815681921412859,-0.6866539460224289,-0.6402018081530406,1.0,1.0,0.0
0.1427607169207786,0.36644981235373236,0.14913182073927062,0.4310041390206618,-0.24326033019338875,-0.405546879628693,-0.33961649824021223,-0.0763964417416273,-0.2576371933276409,-0.16952701625728922,-0.6948723447226157,-0.7937053016548848,-0.7540711012105309,1.0,1.0,0.0
-0.05082179368020527,0.18787767621478715,0.08600622773989891,0.4310041390206618,0.5206866258344611,0.3596322256800455,0.48360492487186824,0.3190183949955079,0.11497687157542039,0.22850495115997171,-0.7515244210132808,-0.8650728720765222,-0.8299839632488578,1.0,1.0,0.0
-0.43798681488217306,-0.34783873220204853,-0.40392374777761186,0.4310041390206618,0.5461515243687228,0.3596322256800455,0.48360492487186824,0.3190183949955079,0.11497687157542039,0.22850495115997171,-0.7515244210132808,-0.8650728720765222,-0.8299839632488578,1.0,1.0,0.0
0.1427607169207786,0.18787767621478715,0.16420658921673217,0.4310041390206618,1.1827739877252643,1.0013953462615681,1.1474931693170942,0.2597061694849376,0.056143071853884396,0.16565779840987788,-0.6571042938621724,-0.7758634090494755,-0.7350928857009491,1.0,1.0,0.0
0.04596946162028667,-0.07998052799363067,0.054914517755133986,0.4310041390206618,1.1827739877252643,1.0013953462615681,1.1474931693170942,0.2597061694849376,0.056143071853884396,0.16565779840987788,-0.6571042938621724,-0.7758634090494755,-0.7350928857009491,1.0,1.0,0.0
-0.534778070182665,-0.2585526641325759,-0.40109722868808767,0.4310041390206618,1.1827739877252643,0.9767121493161249,1.1474931693170942,0.2597061694849376,0.056143071853884396,0.16565779840987788,-0.6571042938621724,-0.7758634090494755,-0.7350928857009491,1.0,1.0,0.0
0.04596946162028667,-0.07998052799363067,0.022880634740527206,0.4310041390206618,-0.31965502579617383,-0.47959647046502263,-0.4192830875736394,0.9121406501012106,0.7229261353646258,0.8569764786609101,-0.5815681921412859,-0.6866539460224289,-0.6402018081530406,1.0,1.0,0.0
0.1427607169207786,0.009305540075841931,0.054914517755133986,0.4310041390206618,1.1827739877252643,1.0013953462615681,1.1474931693170942,0.2597061694849376,0.056143071853884396,0.16565779840987788,-0.6571042938621724,-0.7580215164440661,-0.7350928857009491,2.0,1.0,0.0
0.1427607169207786,-0.07998052799363067,0.03889757624783059,0.4310041390206618,2.0995103349586843,1.8899904362975226,2.130047771096029,-0.7288309223579003,-0.9048089902645369,-0.8608456965083213,0.1171407487769159,-0.02650391962228361,0.043013950191901344,2.0,1.0,0.0
1.8850033123296335,2.4200293779516024,2.47253051232808,0.4310041390206618,1.1827739877252643,0.9767121493161249,1.1474931693170942,0.2597061694849376,0.07575433842772973,0.16565779840987788,-0.6571042938621724,-0.7758634090494755,-0.7350928857009491,2.0,1.0,0.0
-0.14761304898069721,0.09859160814531454,-0.024228016751541112,0.4310041390206618,0.5716164229029844,0.40899861957093187,0.5101604546496772,0.3190183949955079,0.11497687157542039,0.22850495115997171,-0.7515244210132808,-0.8472309794711128,-0.8299839632488578,3.0,1.0,0.0
-0.14761304898069721,-0.2585526641325759,-0.2126626227198144,0.4310041390206618,1.411958074533619,1.2235441187705567,1.3864929373173756,-0.45204053664190563,-0.6302512582307022,-0.588508034591248,-0.4682640395599557,-0.5796025903899729,-0.5263325150955502,3.0,1.0,0.0
0.23955197222127056,0.18787767621478715,0.21131524070880048,0.4310041390206618,1.1063792921224793,0.9273457554252386,1.094382109761476,-0.0763964417416273,-0.2772484599014863,-0.19047606717398718,-0.6571042938621724,-0.7580215164440661,-0.7161146701913673,3.0,1.0,0.0
0.8202995040242222,0.8128801527010955,0.8868533031050604,0.4310041390206618,0.6225462199715078,0.45836501346181824,0.5898270439831044,0.6551210062220728,0.46797966990463635,0.6055878676605346,-0.7137563701528374,-0.8115471942602942,-0.7730493167201126,5.0,0.0,0.0
0.3363432275217625,0.09859160814531454,0.22733218221610388,0.4310041390206618,-0.06500604045355717,-0.23276450101059082,-0.15372778979554894,0.3981013623429349,0.19342193787080172,0.3123011548267635,-0.732640395583059,-0.8293890868657036,-0.7920275322296944,5.0,0.0,0.0
-0.05082179368020527,-0.2585526641325759,-0.1335200882131393,0.4310041390206618,0.5970813214372461,0.40899861957093187,0.5367159844274862,0.6946624898957862,0.4875909364784817,0.6265369185772326,-0.7137563701528374,-0.8115471942602942,-0.7730493167201126,5.0,0.0,0.0
0.23955197222127056,0.009305540075841931,0.1020231692472023,0.4310041390206618,0.6225462199715078,0.4336818165163751,0.5632715142052953,0.6946624898957862,0.4875909364784817,0.6265369185772326,-0.7137563701528374,-0.8115471942602942,-0.7730493167201126,5.0,0.0,0.0
0.1427607169207786,-0.07998052799363067,0.04831930654624372,0.4310041390206618,0.5970813214372461,0.40899861957093187,0.5367159844274862,0.6946624898957862,0.507202203052327,0.6265369185772326,-0.7137563701528374,-0.8115471942602942,-0.7730493167201126,5.0,0.0,0.0
-0.534778070182665,-0.6156969364104663,-0.6046066031338225,0.4310041390206618,0.4952217273001995,0.3102658317891592,0.43049386531625017,0.9319113919380674,0.7425374019384708,0.877925529577608,-0.6382202684319507,-0.7580215164440661,-0.7161146701913673,5.0,0.0,0.0
-0.24440430428118914,-0.4371248002715211,-0.35398857719601934,0.4310041390206618,0.4952217273001995,0.3102658317891592,0.43049386531625017,0.9319113919380674,0.7425374019384708,0.8988745804943059,-0.6382202684319507,-0.7580215164440661,-0.7161146701913673,5.0,0.0,0.0
0.23955197222127056,0.455735880423205,0.4468584981691421,0.4310041390206618,1.1827739877252643,0.9767121493161249,1.1474931693170942,0.2597061694849376,0.056143071853884396,0.16565779840987788,-0.6571042938621724,-0.7758634090494755,-0.7350928857009491,5.0,0.0,0.0
0.23955197222127056,-0.07998052799363067,0.08600622773989891,0.4310041390206618,0.5970813214372461,0.40899861957093187,0.5367159844274862,0.6946624898957862,0.4875909364784817,0.6265369185772326,-0.7137563701528374,-0.8115471942602942,-0.7730493167201126,5.0,0.0,0.0
-0.6315693254831569,-0.7942690725494116,-0.7459325576100274,0.4310041390206618,0.4952217273001995,0.3102658317891592,0.43049386531625017,0.9319113919380674,0.7425374019384708,0.8988745804943059,-0.6382202684319507,-0.740179623838657,-0.7161146701913673,5.0,0.0,0.0
-0.05082179368020527,-0.2585526641325759,-0.1589587600188558,0.4310041390206618,0.4952217273001995,0.3102658317891592,0.43049386531625017,0.9319113919380674,0.7425374019384708,0.877925529577608,-0.6382202684319507,-0.740179623838657,-0.7161146701913673,5.0,0.0,0.0
0.1427607169207786,-0.07998052799363067,0.045492787456719516,0.4310041390206618,0.6225462199715078,0.45836501346181824,0.5632715142052953,0.6551210062220728,0.46797966990463635,0.5846388167438368,-0.7137563701528374,-0.8115471942602942,-0.7730493167201126,5.0,0.0,0.0
-0.3411955595816811,-0.34783873220204853,-0.3473933659871298,0.4310041390206618,0.4952217273001995,0.3102658317891592,0.43049386531625017,0.951682133774924,0.7425374019384708,0.8988745804943059,-0.6382202684319507,-0.740179623838657,-0.7161146701913673,5.0,0.0,0.0
1.110673269925698,0.9021662207705681,1.0281792575812654,0.4310041390206618,-0.06500604045355717,-0.2080813040651476,-0.15372778979554894,0.3981013623429349,0.19342193787080172,0.3123011548267635,-0.732640395583059,-0.8293890868657036,-0.7920275322296944,5.0,0.0,0.0
0.5299257381227463,0.36644981235373236,0.43178372969168055,0.4310041390206618,0.6225462199715078,0.45836501346181824,0.5632715142052953,0.6551210062220728,0.46797966990463635,0.5846388167438368,-0.7137563701528374,-0.8115471942602942,-0.7920275322296944,5.0,0.0,0.0
-0.05082179368020527,0.36644981235373236,0.14913182073927062,0.4310041390206618,0.3169674375603678,1.272910512661443,0.4570493950940592,-0.43226979480504885,0.4875909364784817,0.16565779840987788,-0.9025966244550543,-0.3476579865196515,-0.811005747739276,5.0,0.0,0.0
-1.5026906231875843,-1.5085576171051924,-1.5024975005726446,-1.2884755313881333,-1.0326721847555005,-0.010615728501602174,-0.6051717960183027,-1.8359924652218789,-0.06152452758918758,-0.19047606717398718,-0.8837125990248326,1.2759542405725977,-0.4883760840763867,0.0,0.0,10.0
-1.5026906231875843,-1.6871297532441376,-1.6099052259745605,-1.2884755313881333,-1.1090668803582853,-1.2200923788283178,-1.2159489809079105,0.635350264385216,0.46797966990463635,0.5846388167438368,-0.3549598869786258,-0.4725512347575169,-0.4314414375476417,0.0,0.0,10.0
-1.3091081125866004,-1.3299854809662472,-1.2895663958284962,-1.2884755313881333,-1.9494085319889203,-0.8992108185375567,-1.6142819275750464,-1.1242457590950352,1.1151514668415323,-0.16952701625728922,-0.7892924718737242,0.9369582810698204,0.3656436138547907,0.0,0.0,10.0
2.368959588832093,2.241457241812657,2.290691117568697,0.4310041390206618,-1.9748734305231819,-0.08466531933793171,-1.375282159574765,-0.8276846315421841,1.762323263778428,0.6474859694939306,-0.7137563701528374,0.9726420662806391,-0.07085534286558888,0.0,0.0,10.0
-1.7930643890890603,-1.8657018893830828,-1.854870213733316,0.4310041390206618,-2.204057517331537,-0.10934851628337487,-0.8441715640185842,0.27947691132179436,1.154373999989223,0.7522312240774204,-1.9223339976870244,0.7585393550157271,-0.5263325150955502,0.0,0.0,10.0
-1.5026906231875843,-1.41927154903572,-1.4214706200062872,-1.2884755313881333,-0.8289529964814069,-0.33149728879236345,-0.8176160342407751,-1.480119112158457,-0.2576371933276409,-0.48376278000775835,-0.5815681921412859,0.2946501472750845,-0.4883760840763867,0.0,0.0,10.0
-2.083438154990536,-2.044274025522028,-2.1120834508800086,-1.2884755313881333,-1.1090668803582853,-1.2200923788283178,-1.2159489809079105,0.635350264385216,0.46797966990463635,0.5846388167438368,-0.3549598869786258,-0.4725512347575169,-0.4314414375476417,0.0,0.0,10.0
-1.6962731337885684,-1.7764158213136103,-1.7606529107491793,-1.2884755313881333,-0.8544178950156686,-0.9732604093738861,-0.9503936831298202,0.042228009279513264,-0.10074706073687825,-0.04383271075710157,-0.5060320904203991,-0.5974444829953822,-0.5832671616242954,1.0,1.0,10.0
-0.05082179368020527,0.18787767621478715,0.054914517755133986,-1.2884755313881333,-1.1090668803582853,-1.2200923788283178,-1.2159489809079105,0.6551210062220728,0.46797966990463635,0.5846388167438368,-0.3549598869786258,-0.4725512347575169,-0.4314414375476417,1.0,1.0,10.0
-1.7930643890890603,-1.7764158213136103,-1.7851494095250546,0.4310041390206618,1.437422973067881,1.248227315716,1.4130484670951846,-0.0763964417416273,-0.2576371933276409,-0.16952701625728922,-0.5626841667110641,-0.6509701608116102,-0.6212235926434588,1.0,1.0,10.0
-1.5994818784880764,-1.7764158213136103,-1.7041225289586972,-1.2884755313881333,-1.1090668803582853,-1.2200923788283178,-1.2159489809079105,0.635350264385216,0.46797966990463635,0.5846388167438368,-0.3549598869786258,-0.4725512347575169,-0.4314414375476417,1.0,1.0,10.0
-1.8898556443895522,-2.044274025522028,-1.9867744379111072,0.4310041390206618,1.437422973067881,1.248227315716,1.4130484670951846,-0.0763964417416273,-0.2576371933276409,-0.16952701625728922,-0.5438001412808424,-0.6509701608116102,-0.6212235926434588,1.0,1.0,10.0
-1.9866468996900442,-2.133560093591501,-2.080991740895244,-1.2884755313881333,-0.7780231994128838,-0.8992108185375567,-0.8972826235742023,0.37833062050607813,0.21303320444464705,0.3123011548267635,-0.5438001412808424,-0.6509701608116102,-0.6022453771338772,1.0,1.0,10.0
-1.6962731337885684,-1.6871297532441376,-1.7041225289586972,-1.2884755313881333,-1.1090668803582853,-1.2200923788283178,-1.2159489809079105,0.6551210062220728,0.46797966990463635,0.5846388167438368,-0.3549598869786258,-0.4725512347575169,-0.4314414375476417,1.0,1.0,10.0
-1.8898556443895522,-1.9549879574525555,-1.930244056120625,0.4310041390206618,1.437422973067881,1.248227315716,1.4130484670951846,-0.0763964417416273,-0.2576371933276409,-0.16952701625728922,-0.5438001412808424,-0.6509701608116102,-0.6212235926434588,1.0,1.0,10.0
-1.7930643890890603,-1.8657018893830828,-1.8171832925396614,-1.2884755313881333,-0.7270934023443605,-0.8498444246466702,-0.8441715640185842,0.27947691132179436,0.11497687157542039,0.20755590024327378,-0.5626841667110641,-0.6688120534170195,-0.6212235926434588,1.0,1.0,10.0
-1.8898556443895522,-2.044274025522028,-1.9867744379111072,0.4310041390206618,1.437422973067881,1.248227315716,1.4130484670951846,-0.0763964417416273,-0.2576371933276409,-0.16952701625728922,-0.5438001412808424,-0.6509701608116102,-0.6212235926434588,1.0,1.0,10.0
2.756124610034061,2.241457241812657,2.5356561053274516,-1.2884755313881333,-0.7525583008786221,-0.8745276215921134,-0.8707270937963932,0.4376428460166484,0.2522557375923377,0.3751483075768573,-0.5438001412808424,-0.6509701608116102,-0.6212235926434588,1.0,1.0,10.0
-1.5994818784880764,-1.6871297532441376,-1.6664356077650426,-1.2884755313881333,-1.1090668803582853,-1.2200923788283178,-1.2159489809079105,0.635350264385216,0.46797966990463635,0.5846388167438368,-0.3549598869786258,-0.4725512347575169,-0.4314414375476417,1.0,1.0,10.0
-0.05082179368020527,-0.07998052799363067,-0.02705453584106532,-1.2884755313881333,-1.1090668803582853,-1.2200923788283178,-1.2159489809079105,0.635350264385216,0.46797966990463635,0.5846388167438368,-0.3549598869786258,-0.4725512347575169,-0.4314414375476417,1.0,1.0,10.0
-1.6962731337885684,-1.7764158213136103,-1.7352142389434622,0.4310041390206618,-1.8220840393176119,3.198199874406011,0.35082727598282293,-0.13570866725219757,2.6644415261753136,1.7158875662455257,-0.3927279378390692,1.3116380257834164,0.5744039844601896,1.0,1.0,10.0
-1.6962731337885684,-1.7764158213136103,-1.767248121958069,-1.2884755313881333,-1.1090668803582853,-1.2200923788283178,-1.2425045106857195,0.635350264385216,0.46797966990463635,0.5846388167438368,-0.3549598869786258,-0.4725512347575169,-0.41246322203805996,1.0,1.0,10.0
-1.5994818784880764,-1.7764158213136103,-1.7041225289586972,-1.2884755313881333,-0.8289529964814069,-0.9485772124284431,-0.9503936831298202,0.2597061694849376,0.09536560500157507,0.1866068493265758,-0.5249161158506208,-0.6331282682062008,-0.6022453771338772,1.0,1.0,10.0
-1.5026906231875843,-1.6871297532441376,-1.6099052259745605,-1.2884755313881333,-1.058137083289762,-1.1707259849374316,-1.1893934511301019,0.4771843296903619,0.31108953731387373,0.4170464094102532,-0.41161196326929067,-0.526076912573745,-0.46939786856680515,2.0,1.0,10.0
-1.6962731337885684,-1.7764158213136103,-1.7512311804507654,-1.2884755313881333,-0.8289529964814069,-0.9485772124284431,-0.9238381533520114,0.2597061694849376,0.09536560500157507,0.1866068493265758,-0.5249161158506208,-0.6331282682062008,-0.6022453771338772,2.0,1.0,10.0
-1.6962731337885684,-1.8657018893830828,-1.7983398319428339,-1.2884755313881333,-0.8289529964814069,-0.9485772124284431,-0.9238381533520114,0.2597061694849376,0.09536560500157507,0.1866068493265758,-0.5249161158506208,-0.6331282682062008,-0.6022453771338772,3.0,1.0,10.0
-1.9866468996900442,-1.9549879574525555,-1.9679309773142795,0.4310041390206618,0.18964294488905947,0.03875066538928419,0.1383830377603506,-1.005621308073895,-1.1793667222983715,-1.1541324093420926,2.5909480801359543,2.310784011686339,2.5291601819471072,3.0,1.0,10.0
-2.180229410291028,-2.312132229730446,-2.269426346863517,-1.2884755313881333,-0.7780231994128838,-0.8992108185375567,-0.8972826235742023,0.37833062050607813,0.21303320444464705,0.3123011548267635,-0.5438001412808424,-0.6509701608116102,-0.6022453771338772,3.0,1.0,10.0
-1.8898556443895522,-2.044274025522028,-1.9867744379111072,-1.2884755313881333,-0.7270934023443605,-0.8498444246466702,-0.8441715640185842,0.27947691132179436,0.11497687157542039,0.20755590024327378,-0.5815681921412859,-0.6688120534170195,-0.6402018081530406,3.0,1.0,10.0
-1.5994818784880764,-1.7764158213136103,-1.7041225289586972,-1.2884755313881333,-1.1090668803582853,-1.2200923788283178,-1.2425045106857195,0.635350264385216,0.46797966990463635,0.5846388167438368,-0.3549598869786258,-0.4725512347575169,-0.41246322203805996,3.0,1.0,10.0
-0.05082179368020527,0.36644981235373236,-0.024228016751541112,0.4310041390206618,1.7939315525475446,1.6184752698976477,1.8113814137623205,0.2597061694849376,0.056143071853884396,0.16565779840987788,-0.43049598869951233,-0.526076912573745,-0.4883760840763867,5.0,0.0,10.0
-1.5026906231875843,-1.5978436851746651,-1.591061765377733,-1.2884755313881333,-0.8289529964814069,-0.9485772124284431,-0.9503936831298202,0.2597061694849376,0.09536560500157507,0.1866068493265758,-0.5249161158506208,-0.6331282682062008,-0.5832671616242954,5.0,0.0,10.0
-1.8898556443895522,-2.044274025522028,-1.9867744379111072,0.4310041390206618,0.8517303067798627,0.70519698291625,0.8288268119833858,-0.19502089276276785,-0.3753047927707129,-0.2952213217574769,-0.675988319292394,-0.7580215164440661,-0.7350928857009491,5.0,0.0,10.0
-2.083438154990536,-2.133560093591501,-2.1120834508800086,0.4310041390206618,0.7753356111770777,0.6064641951344774,0.7491602226499587,-0.21479163459962455,-0.3753047927707129,-0.31617037267417486,-0.675988319292394,-0.7758634090494755,-0.7540711012105309,5.0,0.0,10.0
-1.6962731337885684,-1.7764158213136103,-1.7418094501523518,-1.2884755313881333,-1.5674350539749953,-0.7264284399194544,-0.9769492129076293,-0.9660798244001814,1.9192133963691906,0.479893562160347,-0.6948723447226157,0.6158042141724523,-0.3745067910188965,5.0,0.0,10.0
-1.7930643890890603,-1.6871297532441376,-1.6730308189739322,0.4310041390206618,1.7175368569447595,1.5937920729522044,1.8113814137623205,0.18062320213751054,0.11497687157542039,0.16565779840987788,-0.43049598869951233,-0.526076912573745,-0.4883760840763867,5.0,0.0,10.0
1.304255780526682,1.7057408333958215,1.4050484695178118,-1.2884755313881333,-0.5233742140702671,-0.6523788490831249,-0.6051717960183027,-0.056625699904770524,-0.21841466017995026,-0.14857796534059126,-0.6004522175715075,-0.7223377312332476,-0.6781582391722041,5.0,0.0,10.0
2.1753770782311093,1.8843129695347667,2.0645695904067685,-1.2884755313881333,-0.5233742140702671,-0.677062046028568,-0.6317273257961117,0.08176949295322679,-0.10074706073687825,-0.022883659840403612,-0.6193362430017292,-0.7223377312332476,-0.6971364546817859,5.0,0.0,10.0
-0.534778070182665,0.9021662207705681,-0.196645681212511,-1.2884755313881333,-0.5233742140702671,-0.6523788490831249,-0.6051717960183027,-0.056625699904770524,-0.21841466017995026,-0.14857796534059126,-0.6004522175715075,-0.7044958386278383,-0.6781582391722041,5.0,0.0,10.0
1.7882120570291415,1.616454765326349,1.7187920884549868,-1.2884755313881333,-0.6506987067415754,-0.7757948338103408,-0.7379494449073479,0.08176949295322679,-0.10074706073687825,-0.022883659840403612,-0.6004522175715075,-0.7044958386278383,-0.6591800236626224,0.0,0.0,22.0
2.368959588832093,2.062885105673712,2.271847656971869,-1.2884755313881333,-0.6761636052758371,-0.7757948338103408,-0.764504974685157,0.10154023479008353,-0.08113579416303293,-0.001934608923705677,-0.6004522175715075,-0.6866539460224289,-0.6591800236626224,0.0,0.0,22.0
1.4010470358271738,1.0807383569095133,1.294814225026372,0.4310041390206618,-1.5419701554407335,-1.6150235299554085,-1.6673929871306645,-0.43226979480504885,-0.6106399916568569,-0.5466099327578522,0.04160464705602936,-0.08002959743851165,-0.013920696336843659,0.0,0.0,22.0
1.4978382911276658,1.7057408333958215,1.5774661339787817,0.4310041390206618,-1.5419701554407335,-1.6150235299554085,-1.6673929871306645,-0.43226979480504885,-0.6106399916568569,-0.5466099327578522,0.04160464705602936,-0.0978714900439208,-0.013920696336843659,0.0,0.0,22.0
1.4010470358271738,1.0807383569095133,1.2477055735343034,0.4310041390206618,-1.5928999525092569,-1.6643899238462951,-1.7205040466862827,-0.2938746019470517,-0.4733611256399396,-0.3999665763409666,0.022720621625807676,-0.11571338264933016,-0.0328989118464254,1.0,1.0,22.0
1.4010470358271738,1.2593104930484584,1.3579398180257436,0.4310041390206618,-1.5928999525092569,-1.6643899238462951,-1.7205040466862827,-0.2938746019470517,-0.4733611256399396,-0.3999665763409666,0.022720621625807676,-0.11571338264933016,-0.051877127356007136,1.0,1.0,22.0
2.0785858229306173,1.8843129695347667,2.010865727705811,0.4310041390206618,-1.3127860686323787,-1.3928747574464202,-1.4283932191303832,-0.906767598889611,-1.0813103894291447,-1.0703362056753007,0.2115608759280243,0.08054743601017247,0.1568832432493918,1.0,1.0,22.0
1.8850033123296335,1.616454765326349,1.7687272590365792,0.4310041390206618,-1.1854615759610703,-1.2694587727192042,-1.2956155702413377,-1.2626409519530328,-1.453924454332206,-1.4474191221758639,0.7591976134044527,0.5979623215670431,0.7072514930272616,1.0,1.0,22.0
1.013882014625206,0.9021662207705681,1.0149888351634861,-1.2884755313881333,-1.058137083289762,-1.1707259849374316,-1.1893934511301019,-0.9463090825633246,-1.1401441891506807,-1.1122343075086967,0.0982567233466942,-0.062187704833102306,0.024035734682319607,1.0,1.0,22.0
1.8850033123296335,1.5271686972568763,1.73480902996229,0.4310041390206618,-1.1854615759610703,-1.2694587727192042,-1.2956155702413377,-1.2626409519530328,-1.453924454332206,-1.4474191221758639,0.7591976134044527,0.5801204289616337,0.7072514930272616,1.0,1.0,22.0
1.304255780526682,1.0807383569095133,1.232630805056842,-1.2884755313881333,-0.905347692084192,-1.0226268032647725,-1.0035047426854382,-1.1835579846056057,-1.336256854889134,-1.342673867592374,0.230444901358246,0.08054743601017247,0.1568832432493918,2.0,1.0,22.0
0.8202995040242222,0.6343080165621502,0.7992312113298127,0.4310041390206618,-1.7711542422490885,-0.8745276215921134,-1.1628379213522928,-1.7371387560375948,-0.4341385924922489,-0.7561004419248316,-0.3549598869786258,0.3838596103021311,-0.26063749796140606,2.0,1.0,22.0
1.20746452522619,1.0807383569095133,1.1855221535647738,-1.2884755313881333,-0.905347692084192,-1.0226268032647725,-1.0035047426854382,-1.1835579846056057,-1.3558681214629795,-1.342673867592374,0.230444901358246,0.08054743601017247,0.17586145875897352,2.0,1.0,22.0
1.7882120570291415,1.5271686972568763,1.6716834369629183,0.4310041390206618,-1.3127860686323787,-1.3928747574464202,-1.4283932191303832,-0.8869968570527542,-1.0616991228552994,-1.0284381038419048,0.19267685049780264,0.04486365079935378,0.13790502773981003,2.0,1.0,22.0
1.013882014625206,1.0807383569095133,1.0441961990885686,0.4310041390206618,-1.2363913730295937,-1.3188251666100905,-1.348726629796956,-1.084704275421322,-1.257811788593753,-1.2588776639255823,0.40040113023024093,0.25896636206426576,0.34666539834520893,2.0,1.0,22.0
1.8850033123296335,1.616454765326349,1.8290263329464267,0.4310041390206618,-1.3127860686323787,-1.3928747574464202,-1.4283932191303832,-0.906767598889611,-1.0616991228552994,-1.0284381038419048,0.19267685049780264,0.04486365079935378,0.13790502773981003,2.0,1.0,22.0
0.7235082487237302,0.8128801527010955,0.7455273486288554,-1.2884755313881333,-0.9308125906184537,-1.0473100002102158,-1.0566158022410563,-1.1044750172581785,-1.2774230551675982,-1.2588776639255823,0.15490879963735926,0.009179865588535086,0.08097038121106483,2.0,1.0,22.0
1.9817945676301254,1.616454765326349,1.8450432744537302,0.4310041390206618,-1.1854615759610703,-1.2941419696646472,-1.2956155702413377,-1.2626409519530328,-1.4343131877583608,-1.4474191221758639,0.7780816388346743,0.5979623215670431,0.7072514930272616,2.0,1.0,22.0
1.9817945676301254,1.7057408333958215,1.8572915238416674,0.4310041390206618,-1.3127860686323787,-1.3928747574464202,-1.4283932191303832,-0.8672261152158974,-1.0420878562814544,-1.0284381038419048,0.19267685049780264,0.06270554340476313,0.13790502773981003,2.0,1.0,22.0
1.20746452522619,0.9021662207705681,1.0752879090733336,-1.2884755313881333,-0.9562774891527154,-1.0719931971556589,-1.0831713320188654,-0.8276846315421841,-1.022476589707609,-0.9865400020085091,-0.09058353095552243,-0.22276473828178625,-0.16574642041349757,3.0,1.0,22.0
1.110673269925698,0.9021662207705681,1.0555022754466654,-1.2884755313881333,-0.905347692084192,-1.0226268032647725,-1.0035047426854382,-1.1835579846056057,-1.3558681214629795,-1.342673867592374,0.230444901358246,0.08054743601017247,0.17586145875897352,3.0,1.0,22.0
1.20746452522619,1.4378826291874036,1.3673615483241566,0.4310041390206618,-1.2618562715638553,-1.3435083635555336,-1.375282159574765,-1.084704275421322,-1.257811788593753,-1.2379286130088845,0.40040113023024093,0.25896636206426576,0.34666539834520893,3.0,1.0,22.0
1.9817945676301254,1.7057408333958215,1.8761349844384951,0.4310041390206618,-1.3127860686323787,-1.3928747574464202,-1.4018376893525741,-0.906767598889611,-1.0813103894291447,-1.0703362056753007,0.2115608759280243,0.08054743601017247,0.1568832432493918,3.0,1.0,22.0
2.0785858229306173,1.7950269014652942,1.9543353459153283,0.4310041390206618,-1.2873211700981169,-1.3928747574464202,-1.4018376893525741,-0.906767598889611,-1.0813103894291447,-1.0703362056753007,0.2115608759280243,0.08054743601017247,0.1568832432493918,3.0,1.0,22.0
1.304255780526682,1.7057408333958215,1.458752332218769,0.4310041390206618,-1.2618562715638553,-1.3435083635555336,-1.375282159574765,-1.084704275421322,-1.257811788593753,-1.2379286130088845,0.40040113023024093,0.25896636206426576,0.34666539834520893,3.0,1.0,22.0
1.9817945676301254,1.7950269014652942,1.8921519259457984,0.4310041390206618,-1.2873211700981169,-1.368191560500977,-1.4018376893525741,-0.906767598889611,-1.0813103894291447,-1.0703362056753007,0.2115608759280243,0.08054743601017247,0.1568832432493918,3.0,1.0,22.0
1.20746452522619,1.0807383569095133,1.1761004232663592,0.4310041390206618,-1.2363913730295937,-1.3435083635555336,-1.348726629796956,-1.084704275421322,-1.257811788593753,-1.2588776639255823,0.40040113023024093,0.25896636206426576,0.34666539834520893,3.0,1.0,22.0
1.4010470358271738,1.2593104930484584,1.3579398180257436,-1.2884755313881333,-1.0072072862212387,-1.1213595910465453,-1.1097268617966747,-1.1242457590950352,-1.3166455883152888,-1.300775765758978,0.2493289267884677,0.09838932861558174,0.19483967426855514,5.0,0.0,22.0
1.4010470358271738,1.170024424978986,1.2797394565489102,-1.2884755313881333,-0.981742387686977,-1.1213595910465453,-1.1097268617966747,-0.906767598889611,-1.0813103894291447,-1.0493871547586027,-0.015047429234635692,-0.15139716786014884,-0.08983355837517061,5.0,0.0,22.0
1.4010470358271738,2.4200293779516024,1.715023396335622,-1.2884755313881333,-1.0072072862212387,-1.1213595910465453,-1.1097268617966747,-1.2230994682793193,-1.3754793880368248,-1.3845719694257699,0.3626330793697977,0.22328257685344707,0.30870896732604547,5.0,0.0,22.0
1.4010470358271738,1.2593104930484584,1.3890315280105086,0.4310041390206618,-1.1599966774268085,-1.2694587727192042,-1.2956155702413377,-1.2626409519530328,-1.453924454332206,-1.4474191221758639,0.7591976134044527,0.5801204289616337,0.7072514930272616,5.0,0.0,22.0
1.4010470358271738,1.170024424978986,1.2797394565489102,-1.2884755313881333,-0.8798827935499303,-0.9979436063193293,-1.0035047426854382,-1.1835579846056057,-1.3558681214629795,-1.342673867592374,0.230444901358246,0.08054743601017247,0.1568832432493918,5.0,0.0,22.0
1.013882014625206,1.0807383569095133,1.1384135020727053,0.4310041390206618,1.3610282774650961,1.1741777248796703,1.359937407539567,1.1691602939803483,0.9778726008246148,1.1293141405779832,-0.3549598869786258,-0.4725512347575169,-0.4314414375476417,0.0,0.0,26.0
-0.7283605807836488,-0.8835551406188842,-0.8250750921167025,-1.2884755313881333,0.2660376404918445,0.11280025622561372,0.21804962709377773,1.287784745001489,1.0955402002676868,1.255008446078171,-0.4682640395599557,-0.5796025903899729,-0.5263325150955502,0.0,0.0,26.0
-0.6315693254831569,-0.704983004479939,-0.6837491376404976,0.4310041390206618,1.3610282774650961,1.1988609218251134,1.359937407539567,1.1493895521434916,0.9778726008246148,1.1293141405779832,-0.3738439124088475,-0.4725512347575169,-0.4314414375476417,0.0,0.0,26.0
-0.6315693254831569,-0.8835551406188842,-0.7619494991173308,-1.2884755313881333,0.2660376404918445,0.11280025622561372,0.21804962709377773,1.287784745001489,1.0955402002676868,1.255008446078171,-0.4682640395599557,-0.5796025903899729,-0.5263325150955502,0.0,0.0,26.0
-0.9219430913846327,-0.8835551406188842,-0.8872585120862324,-1.2884755313881333,0.2915025390261062,0.18684984706194327,0.24460515687158677,1.2087017776540618,1.1151514668415323,1.213110344244775,-0.5060320904203991,-0.5796025903899729,-0.5642889461147137,0.0,0.0,26.0
-0.14761304898069721,-0.34783873220204853,-0.24375433270457933,-1.2884755313881333,-0.014076243385033795,-0.1587149101742613,-0.0740612004621218,0.8923699082643538,0.7033148687907804,0.8569764786609101,-0.6193362430017292,-0.7223377312332476,-0.6781582391722041,1.0,1.0,26.0
-0.43798681488217306,-0.6156969364104663,-0.5264062416569892,-1.2884755313881333,0.3933621331631528,0.3102658317891592,0.43049386531625017,0.3981013623429349,0.31108953731387373,0.39609735849355526,-0.7704084464435025,-0.8293890868657036,-0.7920275322296944,1.0,1.0,26.0
-0.43798681488217306,-0.6156969364104663,-0.4981410507617485,-1.2884755313881333,-0.16686563459060377,-0.3068140918469203,-0.23339437912897606,0.6155795225483592,0.40914587018310034,0.5427407149104408,-0.6571042938621724,-0.7580215164440661,-0.7350928857009491,1.0,1.0,26.0
-0.43798681488217306,-0.5264108683409937,-0.4953145316722243,-1.2884755313881333,-0.014076243385033795,-0.1587149101742613,-0.0740612004621218,0.7737454572432133,0.5856472693477083,0.7312821731607224,-0.6382202684319507,-0.7580215164440661,-0.7161146701913673,1.0,1.0,26.0
-0.43798681488217306,-0.4371248002715211,-0.4161719971655492,-1.2884755313881333,0.01138865514922782,-0.1587149101742613,-0.0740612004621218,0.9121406501012106,0.7033148687907804,0.8569764786609101,-0.6004522175715075,-0.7223377312332476,-0.6781582391722041,1.0,1.0,26.0
-0.534778070182665,-0.4371248002715211,-0.4227672083744388,-1.2884755313881333,0.3169674375603678,0.1374834531710569,0.24460515687158677,0.1608524603006538,-0.04191326101534226,0.06091254382638815,-0.732640395583059,-0.8293890868657036,-0.811005747739276,1.0,1.0,26.0
0.5299257381227463,0.36644981235373236,0.46287543967644545,-1.2884755313881333,0.4952217273001995,0.3102658317891592,0.43049386531625017,0.5167258133640754,0.33070080388771905,0.4379954603269512,-0.7137563701528374,-0.8293890868657036,-0.7920275322296944,2.0,1.0,26.0
-0.24440430428118914,-0.4371248002715211,-0.35398857719601934,-1.2884755313881333,0.3169674375603678,0.1374834531710569,0.24460515687158677,0.1608524603006538,-0.04191326101534226,0.06091254382638815,-0.732640395583059,-0.8293890868657036,-0.811005747739276,2.0,1.0,26.0
-0.6315693254831569,-0.8835551406188842,-0.7619494991173308,-1.2884755313881333,0.24057274195758283,0.08811705928017054,0.16493856753815964,1.1493895521434916,0.9582613342507698,1.1083650896612853,-0.5249161158506208,-0.6509701608116102,-0.6022453771338772,2.0,1.0,26.0
1.4978382911276658,2.241457241812657,1.7951081038721375,-1.2884755313881333,0.46975682876593783,0.3349490287346023,0.43049386531625017,0.5364965552009322,0.3699233370354097,0.45894451124364916,-0.7137563701528374,-0.8293890868657036,-0.7920275322296944,2.0,1.0,26.0
-0.05082179368020527,-0.2585526641325759,-0.1778022206156834,-1.2884755313881333,0.3424323360946295,0.18684984706194327,0.29771621642720486,0.9714528756117808,0.7817599350861616,0.9407726823277018,-0.6193362430017292,-0.7223377312332476,-0.6781582391722041,3.0,1.0,26.0
-0.43798681488217306,-0.2585526641325759,-0.3718898647630051,-1.2884755313881333,0.2660376404918445,0.08811705928017054,0.19149409731596867,1.1691602939803483,0.9778726008246148,1.1502631914946813,-0.5249161158506208,-0.6331282682062008,-0.5832671616242954,3.0,1.0,26.0
-0.14761304898069721,-0.34783873220204853,-0.27767256177886845,-1.2884755313881333,0.5206866258344611,0.3596322256800455,0.4570493950940592,0.0026865256057997436,-0.17919212703225956,-0.1066798635071954,-0.732640395583059,-0.8115471942602942,-0.7920275322296944,3.0,1.0,26.0
-0.24440430428118914,-0.4371248002715211,-0.3473933659871298,-1.2884755313881333,0.5716164229029844,0.45836501346181824,0.5101604546496772,0.8330576827537836,0.7817599350861616,0.8360274277442121,-0.6382202684319507,-0.7223377312332476,-0.6971364546817859,3.0,1.0,26.0
-0.3411955595816811,-0.4371248002715211,-0.40109722868808767,-1.2884755313881333,0.5716164229029844,0.3843154226254887,0.5101604546496772,0.872599166427497,0.683703602216935,0.8360274277442121,-0.6382202684319507,-0.740179623838657,-0.7161146701913673,3.0,1.0,26.0
-0.24440430428118914,-0.1692665960631033,-0.2126626227198144,-1.2884755313881333,0.3678972346288911,0.18684984706194327,0.29771621642720486,0.8528284245906402,0.6640923356430897,0.8150783768275142,-0.6571042938621724,-0.7580215164440661,-0.7161146701913673,5.0,0.0,26.0
-0.43798681488217306,-0.1692665960631033,-0.36906334567348087,-1.2884755313881333,0.3424323360946295,0.18684984706194327,0.29771621642720486,0.8528284245906402,0.6640923356430897,0.7941293259108162,-0.6571042938621724,-0.7580215164440661,-0.7350928857009491,5.0,0.0,26.0
-0.7283605807836488,-0.8835551406188842,-0.8090581506093991,0.4310041390206618,-1.3891807642351635,-1.4669243482827496,-1.5080598084638104,-0.15547940908905428,-0.29685972647533154,-0.23237416900738306,-0.22277170896707402,-0.32981609391424216,-0.2796157134709878,0.0,0.0,15.0
0.23955197222127056,0.09859160814531454,0.1236931489335541,0.4310041390206618,0.46975682876593783,0.3102658317891592,0.43049386531625017,-1.3021824356267462,-1.453924454332206,-1.4683681730925617,2.307687698682629,2.060997515210609,2.263465164812963,0.0,0.0,15.0
1.013882014625206,1.7057408333958215,1.0658661787749204,2.1504838094294567,-2.10219792319449,-0.9979436063193293,-1.534615338241619,-1.0451627917476085,2.311438727846097,0.8569764786609101,-0.5249161158506208,0.7942231402265457,0.13790502773981003,0.0,0.0,15.0
0.7235082487237302,1.5271686972568763,0.8557615931202954,0.4310041390206618,-0.21779543165912715,-0.35618048573780664,-0.3130609684624032,1.4261799378594862,1.2328190662846041,1.4226008534117545,-0.33607586154840413,-0.45470934215210757,-0.39348500652847823,0.0,0.0,15.0
-0.7283605807836488,-0.8835551406188842,-0.785503824863365,0.4310041390206618,-2.025803227591705,-1.2200923788283178,-1.534615338241619,-0.7683724060316138,-0.022301994441496928,-0.23237416900738306,-0.22277170896707402,0.4552271807237684,-0.2416592824518243,0.0,0.0,15.0
-0.9219430913846327,-1.0621272767578294,-0.9814758150703691,0.4310041390206618,-1.363715865700902,-1.4422411513373066,-1.4815042786860013,-0.15547940908905428,-0.29685972647533154,-0.253323219924081,-0.22277170896707402,-0.3476579865196515,-0.2985939289805695,0.0,0.0,15.0
-0.6315693254831569,-0.704983004479939,-0.6488887355363666,0.4310041390206618,-0.24326033019338875,-0.3808636826832498,-0.3130609684624032,-0.8474553733790409,-1.0028653231337636,-0.9865400020085091,-0.3927279378390692,-0.5082350199683356,-0.4504196530572234,0.0,0.0,15.0
0.7235082487237302,0.7235940846316228,0.6513100456447187,0.4310041390206618,-0.4215146199332204,-0.5289628643559089,-0.4989496769070665,1.3866384541857726,1.2132077997107589,1.3807027515783585,-0.31719183611818247,-0.4190255569412889,-0.3745067910188965,0.0,0.0,15.0
1.013882014625206,1.5271686972568763,1.4681740625171835,0.4310041390206618,-0.24326033019338875,-0.3808636826832498,-0.33961649824021223,-0.8474553733790409,-1.0028653231337636,-0.9865400020085091,-0.3738439124088475,-0.4903931273629263,-0.4504196530572234,0.0,0.0,15.0
-0.8251518360841408,-0.9728412086883568,-0.9343671635783007,0.4310041390206618,-1.1854615759610703,-1.2447755757737609,-1.2690600404635286,0.5760380388746458,0.40914587018310034,0.5217916639937429,-0.3738439124088475,-0.45470934215210757,-0.4314414375476417,1.0,1.0,15.0
0.04596946162028667,0.36644981235373236,0.06998928623259552,0.4310041390206618,0.7498707126428161,0.5817809981890342,0.6960491630943405,-1.3614946611373164,-1.5323695206275876,-1.5521643767593534,2.1566154952408563,1.9182623743673337,2.111639440736309,1.0,1.0,15.0
-0.534778070182665,-0.07998052799363067,-0.36906334567348087,0.4310041390206618,0.46975682876593783,0.3102658317891592,0.43049386531625017,-1.2824116937898895,-1.453924454332206,-1.4474191221758639,2.3265717241128514,2.060997515210609,2.263465164812963,1.0,1.0,15.0
-1.2123168572861085,-0.8835551406188842,-1.0446014080697408,0.4310041390206618,-1.1854615759610703,-1.2447755757737609,-1.2690600404635286,0.5958087807115026,0.40914587018310034,0.5217916639937429,-0.3738439124088475,-0.4725512347575169,-0.4314414375476417,1.0,1.0,15.0
-0.24440430428118914,-0.34783873220204853,-0.27484604268934426,0.4310041390206618,0.036853553683489505,-0.13403171322881807,-0.04750567068431274,-0.5508942458261894,-0.7283075910999289,-0.6932532891747377,-0.5815681921412859,-0.6866539460224289,-0.6402018081530406,1.0,1.0,15.0
-0.6315693254831569,-0.704983004479939,-0.6837491376404976,0.4310041390206618,-0.3451199243304355,0.8039297706980227,0.4570493950940592,-1.8359924652218789,0.2718670041661831,-1.5102662749259577,1.0235739694275559,2.721147541610754,2.0736830097171457,1.0,1.0,15.0
0.1427607169207786,-0.07998052799363067,0.03889757624783059,0.4310041390206618,0.3169674375603678,0.16216665011650008,0.24460515687158677,0.37833062050607813,0.17381067129695638,0.29135210391006555,-0.7515244210132808,-0.8650728720765222,-0.8299839632488578,2.0,1.0,15.0
-0.43798681488217306,1.0807383569095133,0.21791045191769073,0.4310041390206618,0.3678972346288911,0.23621624095282961,0.3242717462050139,2.157697385823186,1.9780471960907267,2.1977157373295784,1.5712107069039845,1.4008474888104632,1.5422929754488575,2.0,1.0,15.0
-0.05082179368020527,-0.1692665960631033,-0.07133666824360943,0.4310041390206618,0.18964294488905947,0.03875066538928419,0.11182750798254154,-1.0253920499107516,-1.198977988872217,-1.1750814602587905,-0.31719183611818247,-0.43686744954669826,-0.3745067910188965,2.0,1.0,15.0
-0.7283605807836488,0.9021662207705681,-0.306879925703951,0.4310041390206618,-1.3382509671666403,0.23621624095282961,-0.020950140906503666,-1.578972821342741,1.9780471960907267,1.4016518024950566,1.4012544780319893,2.721147541610754,2.1685740872650543,2.0,1.0,15.0
-0.43798681488217306,-0.4371248002715211,-0.425593727463963,2.1504838094294567,-2.0767330246602285,0.7298801798616932,-0.28650543868459416,-3.2594858774755653,1.625044397761511,-1.1960305111754885,-1.015900777036384,1.3294799183888257,-0.051877127356007136,2.0,1.0,15.0
-1.1155256019856166,-1.2406994128967745,-1.2019443040532491,0.4310041390206618,0.4188270316974144,0.45836501346181824,0.5101604546496772,-0.6695186968473299,-0.8067526573953101,-0.7770494928415296,-0.5815681921412859,-0.6331282682062008,-0.6212235926434588,2.0,1.0,15.0
-1.4058993678870924,-1.5085576171051924,-1.4525623299910522,0.4310041390206618,0.16417804635479782,0.03875066538928419,0.11182750798254154,-0.906767598889611,-1.0813103894291447,-1.0493871547586027,-0.41161196326929067,-0.5082350199683356,-0.46939786856680515,2.0,1.0,15.0
0.23955197222127056,0.36644981235373236,0.36865813669230885,0.4310041390206618,0.18964294488905947,0.03875066538928419,0.1383830377603506,-0.748601664194757,-0.9244202568383822,-0.8817947474250193,-0.5060320904203991,-0.6152863756007915,-0.5642889461147137,2.0,1.0,15.0
-1.5026906231875843,-0.6156969364104663,-1.308409856425323,0.4310041390206618,-0.11593583752208048,-0.25744769795603395,-0.18028331957335794,0.9121406501012106,0.7229261353646258,0.877925529577608,-0.6193362430017292,-0.7223377312332476,-0.6781582391722041,3.0,1.0,15.0
-0.05082179368020527,-0.07998052799363067,-0.08358491763154677,0.4310041390206618,0.06231845221775119,-0.08466531933793171,0.005605388871305367,-0.8474553733790409,-1.022476589707609,-1.007489052925207,-0.43049598869951233,-0.5439188051791541,-0.4883760840763867,3.0,1.0,15.0
-0.14761304898069721,-0.34783873220204853,-0.25977127421188273,0.4310041390206618,0.06231845221775119,-0.08466531933793171,0.005605388871305367,-0.8474553733790409,-1.022476589707609,-1.007489052925207,-0.43049598869951233,-0.5439188051791541,-0.4883760840763867,3.0,1.0,15.0
-1.3091081125866004,-1.2406994128967745,-1.2735494543211927,0.4310041390206618,-0.09047093898781879,-0.23276450101059082,-0.18028331957335794,0.9319113919380674,0.7425374019384708,0.877925529577608,-0.6193362430017292,-0.7223377312332476,-0.6781582391722041,3.0,1.0,15.0
0.04596946162028667,0.5450219484926776,0.22733218221610388,0.4310041390206618,-0.3960497213989587,-0.5289628643559089,-0.4989496769070665,-0.13570866725219757,-0.2772484599014863,-0.2114251180906851,-0.6571042938621724,-0.740179623838657,-0.7161146701913673,3.0,1.0,15.0
-0.14761304898069721,-0.34783873220204853,-0.2126626227198144,0.4310041390206618,0.18964294488905947,0.03875066538928419,0.11182750798254154,-0.748601664194757,-0.9048089902645369,-0.8817947474250193,-0.5249161158506208,-0.6152863756007915,-0.5642889461147137,3.0,1.0,15.0
-1.3091081125866004,-0.7942690725494116,-1.122801769546574,0.4310041390206618,-0.11593583752208048,-0.25744769795603395,-0.206838849351167,0.8923699082643538,0.7229261353646258,0.8569764786609101,-0.6193362430017292,-0.7223377312332476,-0.6971364546817859,3.0,1.0,15.0
-1.4058993678870924,-0.8835551406188842,-1.233036014038014,0.4310041390206618,0.24057274195758283,0.11280025622561372,0.19149409731596867,-0.8869968570527542,-1.0616991228552994,-1.0284381038419048,-0.41161196326929067,-0.526076912573745,-0.4883760840763867,5.0,0.0,15.0
-0.9219430913846327,-0.9728412086883568,-0.9503841050856041,0.4310041390206618,0.4952217273001995,0.45836501346181824,0.5101604546496772,-0.6695186968473299,-0.8263639239691555,-0.7770494928415296,-0.5815681921412859,-0.6331282682062008,-0.6212235926434588,5.0,0.0,15.0
-1.2123168572861085,-0.7942690725494116,-1.060618349577044,-1.2884755313881333,-0.5233742140702671,-0.6276956521376817,-0.6051717960183027,0.8132869409169269,0.624869802495399,0.7522312240774204,-0.5626841667110641,-0.6509701608116102,-0.6212235926434588,0.0,0.0,25.0
-1.1155256019856166,-0.07998052799363067,-0.55467143255223,-1.2884755313881333,-0.4724444170017438,-0.6030124551922386,-0.5786162662404937,0.8330576827537836,0.6640923356430897,0.7941293259108162,-0.5438001412808424,-0.6509701608116102,-0.6212235926434588,0.0,0.0,25.0
-0.534778070182665,-0.6156969364104663,-0.5735148931490576,-1.2884755313881333,-0.06500604045355717,-0.2080813040651476,-0.15372778979554894,0.6946624898957862,0.507202203052327,0.6265369185772326,-0.675988319292394,-0.7758634090494755,-0.7350928857009491,0.0,0.0,25.0
-1.2123168572861085,-1.3299854809662472,-1.2641277240227788,-1.2884755313881333,-0.8798827935499303,-0.9979436063193293,-0.9769492129076293,-0.2938746019470517,-0.4341385924922489,-0.37901752542426864,-0.43049598869951233,-0.5439188051791541,-0.5073542995859684,0.0,0.0,25.0
-0.05082179368020527,-0.34783873220204853,-0.196645681212511,0.4310041390206618,-0.6252338082073138,-0.7511116368648976,-0.7379494449073479,-1.1835579846056057,-1.3558681214629795,-1.363622918509072,2.1943835461012995,1.9182623743673337,2.130617656245891,0.0,0.0,25.0
-0.43798681488217306,-0.5264108683409937,-0.4792975901649209,-1.2884755313881333,-0.4724444170017438,-0.6030124551922386,-0.5786162662404937,0.8330576827537836,0.6444810690692444,0.7941293259108162,-0.5438001412808424,-0.6509701608116102,-0.6212235926434588,0.0,0.0,25.0
-0.6315693254831569,-0.7942690725494116,-0.7459325576100274,-1.2884755313881333,-0.6506987067415754,-0.6523788490831249,-0.6848383853517298,0.5958087807115026,0.5856472693477083,0.6684350204106285,-0.5626841667110641,-0.5974444829953822,-0.6212235926434588,0.0,0.0,25.0
-1.4058993678870924,-1.5085576171051924,-1.484596213005659,-1.2884755313881333,-0.4979093155360055,-0.6276956521376817,-0.5786162662404937,0.7539747154063565,0.5856472693477083,0.7103331222440245,-0.5626841667110641,-0.6688120534170195,-0.6402018081530406,0.0,0.0,25.0
-1.0187343466851246,-1.151413344827302,-1.1011317898602229,-1.2884755313881333,-0.6506987067415754,-0.7757948338103408,-0.7379494449073479,0.4771843296903619,0.31108953731387373,0.4170464094102532,-0.5815681921412859,-0.6866539460224289,-0.6402018081530406,0.0,0.0,25.0
-0.534778070182665,-0.6156969364104663,-0.5574979516417542,0.4310041390206618,-1.2873211700981169,-1.3928747574464202,-1.4283932191303832,-0.8474553733790409,-1.022476589707609,-1.007489052925207,2.0810793935199694,1.8290529113402871,2.0357265786979823,0.0,0.0,25.0
-1.5026906231875843,-1.5978436851746651,-1.5533748441840785,0.4310041390206618,0.1132482492862745,-0.03529892544704534,0.05871644842692347,0.5958087807115026,0.40914587018310034,0.5427407149104408,-0.7137563701528374,-0.8115471942602942,-0.7920275322296944,1.0,1.0,25.0
-0.43798681488217306,-0.5264108683409937,-0.4792975901649209,-1.2884755313881333,-0.4724444170017438,-0.6030124551922386,-0.5786162662404937,0.8330576827537836,0.6640923356430897,0.7941293259108162,-0.5438001412808424,-0.6509701608116102,-0.6212235926434588,1.0,1.0,25.0
-0.534778070182665,-0.704983004479939,-0.6046066031338225,-1.2884755313881333,-1.0326721847555005,-1.1460427879919886,-1.1362823915744837,-1.084704275421322,-1.257811788593753,-1.2588776639255823,2.043311342659526,1.7933691261294684,1.9977701476788188,1.0,1.0,25.0
-1.7930643890890603,-1.41927154903572,-1.6881055874513937,0.4310041390206618,0.1132482492862745,-0.03529892544704534,0.05871644842692347,0.5760380388746458,0.38953460360925507,0.5008426130770449,-0.7137563701528374,-0.8115471942602942,-0.7920275322296944,1.0,1.0,25.0
-0.9219430913846327,-1.0621272767578294,-0.9908975453687828,-1.2884755313881333,-0.7016285038100988,-0.825161227701227,-0.791060504462966,0.042228009279513264,-0.13996959388456892,-0.06478176167379951,-0.5626841667110641,-0.6688120534170195,-0.6212235926434588,1.0,1.0,25.0
-0.3411955595816811,-0.4371248002715211,-0.3850802871807843,0.4310041390206618,-0.14140073605634215,-0.3068140918469203,-0.23339437912897606,-1.658055788690168,-1.8265385192352674,-1.8454510895931246,1.3823704526017677,1.1689028849401417,1.3335326048434586,1.0,1.0,25.0
-1.5994818784880764,-1.6871297532441376,-1.6409969359593255,0.4310041390206618,0.036853553683489505,-0.13403171322881807,-0.04750567068431274,-1.658055788690168,-1.8461497858091127,-1.8664001405098225,1.476790579752876,1.2581123479671883,1.4094454668817853,1.0,1.0,25.0
-1.7930643890890603,-1.8657018893830828,-1.8360267531364884,0.4310041390206618,-1.2109264744953319,-1.3188251666100905,-1.348726629796956,-0.1159379254153408,-0.29685972647533154,-0.23237416900738306,2.572064054705733,2.2929421190809296,2.5101819664375253,1.0,1.0,25.0
-0.6315693254831569,-0.8835551406188842,-0.7619494991173308,0.4310041390206618,-0.19233053312486545,-0.33149728879236345,-0.28650543868459416,-1.578972821342741,-1.7480934529398862,-1.7826039368430309,1.6845148594853145,1.4543731666266912,1.637184052996766,1.0,1.0,25.0
-1.3091081125866004,-1.2406994128967745,-1.308409856425323,-1.2884755313881333,-0.7016285038100988,-0.825161227701227,-0.8176160342407751,0.08176949295322679,-0.10074706073687825,-0.001934608923705677,-0.5626841667110641,-0.6688120534170195,-0.6402018081530406,2.0,1.0,25.0
-1.6962731337885684,-0.5264108683409937,-1.0285844665624373,-1.2884755313881333,-1.1090668803582853,-1.2200923788283178,-1.2425045106857195,-1.0649335335844652,-1.257811788593753,-1.2379286130088845,1.986659266368861,1.7398434483132403,1.9218572856404919,2.0,1.0,25.0
-1.5994818784880764,-1.6871297532441376,-1.6475921471682151,-1.2884755313881333,0.1132482492862745,-0.03529892544704534,0.05871644842692347,0.5958087807115026,0.40914587018310034,0.5427407149104408,-0.7137563701528374,-0.8115471942602942,-0.7730493167201126,2.0,1.0,25.0
-1.5026906231875843,-1.6871297532441376,-1.6099052259745605,-1.2884755313881333,-0.014076243385033795,-0.18339810711970442,-0.1006167302399308,0.2597061694849376,0.07575433842772973,0.16565779840987788,-0.732640395583059,-0.8293890868657036,-0.7920275322296944,2.0,1.0,25.0
-1.4058993678870924,-1.5085576171051924,-1.4996709814831206,-1.2884755313881333,-0.4979093155360055,-0.6276956521376817,-0.5786162662404937,0.7935161990800701,0.624869802495399,0.7522312240774204,-0.5626841667110641,-0.6688120534170195,-0.6212235926434588,2.0,1.0,25.0
-1.5026906231875843,-1.5978436851746651,-1.5863509002285263,0.4310041390206618,-0.8798827935499303,-1.0226268032647725,-1.0035047426854382,-1.144016500931892,-1.3166455883152888,-1.321724816675676,2.0810793935199694,1.8290529113402871,2.0167483631884005,2.0,1.0,25.0
-0.534778070182665,-0.6156969364104663,-0.6272187558500154,0.4310041390206618,-1.0326721847555005,-1.1460427879919886,-1.1362823915744837,-1.084704275421322,-1.257811788593753,-1.2588776639255823,2.0621953680897476,1.7933691261294684,1.9977701476788188,2.0,1.0,25.0
-1.3091081125866004,-1.2406994128967745,-1.2641277240227788,0.4310041390206618,-0.8798827935499303,-1.0226268032647725,-1.0035047426854382,-1.144016500931892,-1.336256854889134,-1.321724816675676,2.0621953680897476,1.8290529113402871,2.0167483631884005,3.0,1.0,25.0
-1.5026906231875843,-1.6871297532441376,-1.6099052259745605,-1.2884755313881333,-0.4979093155360055,-0.6276956521376817,-0.5786162662404937,0.8132869409169269,0.624869802495399,0.7731802749941182,-0.5626841667110641,-0.6688120534170195,-0.6212235926434588,3.0,1.0,25.0
-1.5026906231875843,-1.6871297532441376,-1.6099052259745605,-1.2884755313881333,-0.4979093155360055,-0.6276956521376817,-0.5786162662404937,0.8132869409169269,0.624869802495399,0.7731802749941182,-0.5438001412808424,-0.6509701608116102,-0.6212235926434588,3.0,1.0,25.0
-0.3411955595816811,-0.5264108683409937,-0.46045412956809334,0.4310041390206618,-0.8798827935499303,-1.0226268032647725,-1.0035047426854382,-1.144016500931892,-1.336256854889134,-1.321724816675676,2.0621953680897476,1.8112110187348778,2.0167483631884005,3.0,1.0,25.0
-0.6315693254831569,-0.4371248002715211,-0.5895318346563609,0.4310041390206618,-0.6506987067415754,-0.7757948338103408,-0.7379494449073479,-1.2626409519530328,-1.336256854889134,-1.4264700712591658,2.0810793935199694,1.9717880521835616,2.0357265786979823,3.0,1.0,25.0
-1.6962731337885684,-1.151413344827302,-1.6409969359593255,0.4310041390206618,-0.8798827935499303,-1.0226268032647725,-1.0035047426854382,-1.144016500931892,-1.336256854889134,-1.321724816675676,2.0810793935199694,1.8112110187348778,2.0167483631884005,3.0,1.0,25.0
-1.2123168572861085,-1.0621272767578294,-1.0822883292633954,-1.2884755313881333,-0.4724444170017438,-0.6030124551922386,-0.5786162662404937,0.8330576827537836,0.6640923356430897,0.7941293259108162,-0.5438001412808424,-0.6331282682062008,-0.6212235926434588,3.0,1.0,25.0
-1.5026906231875843,-1.5085576171051924,-1.5317048644977274,0.4310041390206618,-0.8798827935499303,-1.0226268032647725,-1.0035047426854382,-1.144016500931892,-1.336256854889134,-1.321724816675676,2.0621953680897476,1.8112110187348778,2.0167483631884005,3.0,1.0,25.0
-1.5026906231875843,-1.41927154903572,-1.5317048644977274,-1.2884755313881333,-0.4979093155360055,-0.6276956521376817,-0.5786162662404937,0.8132869409169269,0.624869802495399,0.7731802749941182,-0.5438001412808424,-0.6509701608116102,-0.6212235926434588,3.0,1.0,25.0
-1.5994818784880764,-1.6871297532441376,-1.6504186662577394,-1.2884755313881333,-0.4979093155360055,-0.6276956521376817,-0.5786162662404937,0.8132869409169269,0.624869802495399,0.7731802749941182,-0.5438001412808424,-0.6688120534170195,-0.6212235926434588,3.0,1.0,25.0
-1.5994818784880764,-1.5978436851746651,-1.5788135159897956,-1.2884755313881333,-0.4979093155360055,-0.6276956521376817,-0.6051717960183027,0.8132869409169269,0.624869802495399,0.7731802749941182,-0.5438001412808424,-0.6509701608116102,-0.6212235926434588,3.0,1.0,25.0
-0.6315693254831569,-0.7942690725494116,-0.708245636416373,0.4310041390206618,-0.16686563459060377,-0.28213089490147714,-0.2599499089067851,-1.5987435631795974,-1.7480934529398862,-1.8035529877597287,1.6278627831946495,1.4186893814158725,1.5612711909584391,5.0,0.0,25.0
-1.4058993678870924,-1.0621272767578294,-1.3112363755148473,0.4310041390206618,0.036853553683489505,-0.10934851628337487,-0.04750567068431274,-1.6778265305270246,-1.8461497858091127,-1.8664001405098225,1.476790579752876,1.3116380257834164,1.4094454668817853,5.0,0.0,25.0
-1.3091081125866004,-0.704983004479939,-0.9126971838919495,0.4310041390206618,-0.2687252287276504,-0.405546879628693,-0.33961649824021223,0.3981013623429349,0.23264447101849237,0.3332502057434614,-0.6948723447226157,-0.7937053016548848,-0.7540711012105309,5.0,0.0,25.0
-0.3411955595816811,-0.6156969364104663,-0.4792975901649209,-1.2884755313881333,-0.7270934023443605,-0.08466531933793171,-0.4192830875736394,-1.6778265305270246,0.19342193787080172,-0.12762891442389337,-0.732640395583059,1.2224285627563698,-0.4883760840763867,5.0,0.0,25.0
-0.6315693254831569,-0.5264108683409937,-0.6046066031338225,0.4310041390206618,-0.16686563459060377,-0.28213089490147714,-0.2599499089067851,-1.638285046853311,-1.6696483866445049,-1.8035529877597287,1.5712107069039845,1.4722150592321004,1.5802494064680208,5.0,0.0,25.0
-1.5026906231875843,-0.704983004479939,-1.0135096980849758,0.4310041390206618,0.06231845221775119,-0.10934851628337487,-0.020950140906503666,-1.6778265305270246,-1.8461497858091127,-1.8873491914265206,1.4201385034622112,1.2224285627563698,1.371489035862622,5.0,0.0,25.0
-0.6315693254831569,-0.5264108683409937,-0.6488887355363666,0.4310041390206618,-0.19233053312486545,-0.33149728879236345,-0.2599499089067851,-1.5987435631795974,-1.7677047195137314,-1.7826039368430309,1.6845148594853145,1.507898844442919,1.6182058374871844,5.0,0.0,25.0
-1.2123168572861085,-0.9728412086883568,-1.157662171650705,0.4310041390206618,0.036853553683489505,-0.13403171322881807,-0.04750567068431274,-1.658055788690168,-1.8461497858091127,-1.8664001405098225,1.476790579752876,1.2581123479671883,1.4094454668817853,5.0,0.0,25.0
-1.0187343466851246,-1.151413344827302,-1.1077270010691125,-1.2884755313881333,-0.7525583008786221,-0.8745276215921134,-0.8441715640185842,-0.5311235039893327,-0.6890850579522383,-0.6513551873413419,-0.41161196326929067,-0.4903931273629263,-0.4504196530572234,5.0,0.0,25.0
-1.5994818784880764,-1.6871297532441376,-1.6409969359593255,0.4310041390206618,0.036853553683489505,-0.13403171322881807,-0.04750567068431274,-1.658055788690168,-1.8461497858091127,-1.8664001405098225,1.476790579752876,1.2581123479671883,1.428423682391367,5.0,0.0,25.0
1.4978382911276658,1.3485965611179311,1.4992657725019485,2.1504838094294567,-0.24326033019338875,2.5811199507699314,1.3864929373173756,-2.1523243346115866,1.625044397761511,-0.9865400020085091,-0.9970167516061622,0.6693298919886804,-0.1847246359230793,0.0,0.0,18.0
1.20746452522619,1.5271686972568763,1.2166138635495385,12.467361831882227,-2.2804522129343217,3.3216158591332268,0.4570493950940592,-3.2594858774755653,4.468678050969085,0.5008426130770449,-1.1669729804781575,3.4705070310379456,0.4036000448739542,0.0,0.0,18.0
1.5946295464281577,1.3485965611179311,1.483248830994645,-1.2884755313881333,-0.014076243385033795,2.5811199507699314,0.8022712822055766,0.08176949295322679,2.5663851933060866,1.7577856680789217,-0.4871480649901774,2.524886722951251,0.7831643550655886,0.0,0.0,18.0
0.3363432275217625,0.455735880423205,0.3846750781996122,0.4310041390206618,1.2591686833280493,1.0507617401524545,1.2271597586505214,-0.748601664194757,-0.9244202568383822,-0.9027437983417173,2.609832105566176,2.3286259042917483,2.5671166129662706,1.0,1.0,18.0
0.9170907593247142,0.7235940846316228,0.839744651612992,0.4310041390206618,1.2591686833280493,1.0507617401524545,1.2271597586505214,-0.748601664194757,-0.9440315234122275,-0.9027437983417173,2.609832105566176,2.3286259042917483,2.5671166129662706,1.0,1.0,18.0
1.9817945676301254,1.616454765326349,1.7979346229616617,0.4310041390206618,1.2337037847937877,1.0260785432070114,1.2006042288727123,-1.559202079505884,-1.7480934529398862,-1.761654885926333,1.4956746051830976,1.2759542405725977,1.4474018979009486,2.0,1.0,18.0
0.5299257381227463,0.7235940846316228,0.6513100456447187,0.4310041390206618,1.2591686833280493,1.0507617401524545,1.2271597586505214,-0.748601664194757,-0.9244202568383822,-0.8817947474250193,2.628716130996398,2.3286259042917483,2.5671166129662706,3.0,1.0,18.0
1.6914208017286496,1.5271686972568763,1.668856917873394,0.4310041390206618,1.0299845965196945,0.8532961645889091,1.0147155204280494,-1.2033287264424624,-1.3754793880368248,-1.3845719694257699,-0.05281548009507906,-0.18708095307096756,-0.10881177388475236,3.0,1.0,18.0
1.5946295464281577,1.4378826291874036,1.6095000169933884,0.4310041390206618,1.0045196979854327,0.8286129676434659,0.9881599906502402,-1.3417239193004598,-1.5127582540537423,-1.5102662749259577,0.0982567233466942,-0.04434581222769296,0.024035734682319607,3.0,1.0,18.0
1.7882120570291415,1.5271686972568763,1.725387299663877,0.4310041390206618,1.0299845965196945,0.8286129676434659,0.9881599906502402,-1.2033287264424624,-1.3754793880368248,-1.363622918509072,-0.07169950552530074,-0.2049228456763769,-0.12778998939433409,3.0,1.0,18.0
1.4978382911276658,1.3485965611179311,1.515282714009252,0.4310041390206618,1.0299845965196945,0.8286129676434659,0.9881599906502402,-1.3417239193004598,-1.5127582540537423,-1.5312153258426557,0.1171407487769159,-0.02650391962228361,0.043013950191901344,3.0,1.0,18.0
1.20746452522619,1.5271686972568763,1.3673615483241566,0.4310041390206618,0.9790547994511711,0.8286129676434659,0.9616044608724311,-1.40103614481103,-1.5519807872014326,-1.5731134276760514,2.0621953680897476,1.8468948039456965,2.0167483631884005,5.0,0.0,18.0
1.304255780526682,1.5271686972568763,1.2703177262504959,2.1504838094294567,-1.058137083289762,3.8646461919329766,1.067826579983667,-2.290719527469584,0.9974838673984602,-1.4683681730925617,-0.7892924718737242,2.3999934747133858,1.2765979583147133,5.0,0.0,18.0
1.5946295464281577,1.616454765326349,1.5934830754860851,0.4310041390206618,1.0045196979854327,0.8286129676434659,0.9881599906502402,-1.381265402974173,-1.571592053775278,-1.5731134276760514,2.0621953680897476,1.8112110187348778,2.0167483631884005,5.0,0.0,18.0
0.9170907593247142,0.9021662207705681,0.9650536645818936,0.4310041390206618,1.3100984803965727,1.1001281340433409,1.2802708182061397,-1.5394313376690274,-1.728482186366041,-1.740705835009635,1.5145586306133194,1.293796133178007,1.4474018979009486,5.0,0.0,18.0
-0.24440430428118914,0.9021662207705681,0.054914517755133986,0.4310041390206618,1.2337037847937877,1.0507617401524545,1.2271597586505214,-0.748601664194757,-0.9440315234122275,-0.9027437983417173,2.609832105566176,2.3286259042917483,2.5671166129662706,5.0,0.0,18.0
2.562542099433077,2.4200293779516024,2.5356561053274516,0.4310041390206618,1.3864931759993577,1.1988609218251134,1.359937407539567,-0.2543331182733381,-0.4341385924922489,-0.37901752542426864,-0.5438001412808424,-0.6509701608116102,-0.6022453771338772,5.0,0.0,18.0
0.1427607169207786,-0.1692665960631033,-0.008211075244237724,0.4310041390206618,1.2337037847937877,1.1001281340433409,1.2271597586505214,-0.7683724060316138,-0.8851977236906915,-0.9027437983417173,2.5909480801359543,2.382151582107976,2.5671166129662706,5.0,0.0,18.0
1.304255780526682,1.2593104930484584,1.2477055735343034,0.4310041390206618,1.2846335818623111,1.0754449370978976,1.2537152884283307,-1.5196605958321705,-1.6892596532183501,-1.719756784092937,1.6278627831946495,1.4008474888104632,1.5612711909584391,5.0,0.0,18.0
-0.3411955595816811,-0.34783873220204853,-0.29086298419664763,-1.2884755313881333,-0.4215146199332204,-0.5289628643559089,-0.4989496769070665,-0.01708421623105703,-0.17919212703225956,-0.1066798635071954,-0.6571042938621724,-0.740179623838657,-0.7161146701913673,0.0,0.0,17.0
0.04596946162028667,-0.1692665960631033,-0.055319726736306044,-1.2884755313881333,-0.31965502579617383,-0.45491327351957944,-0.4192830875736394,-0.8276846315421841,-0.9832540565599183,-0.9655909510918111,-0.3738439124088475,-0.4725512347575169,-0.4314414375476417,0.0,0.0,17.0
-0.534778070182665,-0.6156969364104663,-0.5895318346563609,-1.2884755313881333,-0.2941901272619121,-0.43023007657413626,-0.3661720280180213,0.7935161990800701,0.6052585359215537,0.7312821731607224,-0.6193362430017292,-0.7223377312332476,-0.6781582391722041,0.0,0.0,17.0
-0.05082179368020527,-0.1692665960631033,-0.10242837822837436,-1.2884755313881333,-0.31965502579617383,-0.47959647046502263,-0.4192830875736394,-0.8079138897053274,-0.9832540565599183,-0.9655909510918111,-0.3738439124088475,-0.4725512347575169,-0.4314414375476417,0.0,0.0,17.0
0.04596946162028667,-0.07998052799363067,-0.008211075244237724,-1.2884755313881333,-0.37058482286469707,-0.45491327351957944,-0.4192830875736394,-0.8079138897053274,-0.9244202568383822,-0.9236928492584152,-0.3927279378390692,-0.4903931273629263,-0.4504196530572234,0.0,0.0,17.0
0.04596946162028667,0.009305540075841931,0.045492787456719516,-1.2884755313881333,-0.31965502579617383,-0.45491327351957944,-0.4192830875736394,-0.8276846315421841,-0.9832540565599183,-0.9655909510918111,-0.3549598869786258,-0.4725512347575169,-0.4314414375476417,1.0,1.0,17.0
-0.9219430913846327,-0.9728412086883568,-0.9503841050856041,-1.2884755313881333,-0.3960497213989587,-0.5042796674104658,-0.4723941471292574,-0.01708421623105703,-0.1988033936061049,-0.12762891442389337,-0.6571042938621724,-0.7580215164440661,-0.7161146701913673,1.0,1.0,17.0
-0.8251518360841408,-0.9728412086883568,-0.893853723295122,-1.2884755313881333,-0.3451199243304355,-0.45491327351957944,-0.4192830875736394,-0.6299772131736165,-0.7871413908214647,-0.7561004419248316,-0.4871480649901774,-0.5796025903899729,-0.5453107306051319,1.0,1.0,17.0
-0.7283605807836488,-0.704983004479939,-0.7459325576100274,-1.2884755313881333,-0.2687252287276504,-0.3808636826832498,-0.33961649824021223,-0.9660798244001814,-1.1009216560029902,-1.0912852565919986,-0.29830781068796075,-0.40118366433587954,-0.35552857550931477,2.0,1.0,17.0
-0.14761304898069721,-0.34783873220204853,-0.25317606300299245,2.1504838094294567,-1.9239436334546585,1.3716433004432158,-0.28650543868459416,-1.2824116937898895,0.683703602216935,-0.23237416900738306,-1.2991611584897091,0.2768082546696751,-0.6971364546817859,2.0,1.0,17.0
-1.1155256019856166,-1.0621272767578294,-1.1548356525611807,-1.2884755313881333,-0.6761636052758371,-0.8004780307557839,-0.791060504462966,-0.8276846315421841,-0.9832540565599183,-0.9655909510918111,-0.2416557343972957,-0.3654998791250608,-0.31757214449015125,2.0,1.0,17.0
-0.6315693254831569,-0.704983004479939,-0.6366404861484293,-1.2884755313881333,-0.5233742140702671,-0.6276956521376817,-0.6051717960183027,-0.3334160856207651,-0.5125836587876301,-0.4628137290910604,-0.5438001412808424,-0.6509701608116102,-0.6212235926434588,2.0,1.0,17.0
-0.05082179368020527,-0.2585526641325759,-0.12127183882520196,0.4310041390206618,-0.7780231994128838,0.5077314073527046,-0.4989496769070665,-0.906767598889611,0.566036002773863,0.5008426130770449,-0.9403646753154976,-0.3119742013088328,-0.6781582391722041,2.0,1.0,17.0
0.23955197222127056,0.009305540075841931,0.1048496883367265,-1.2884755313881333,-0.31965502579617383,-0.45491327351957944,-0.4192830875736394,-0.8276846315421841,-1.0028653231337636,-0.9865400020085091,-0.3549598869786258,-0.4725512347575169,-0.41246322203805996,2.0,1.0,17.0
0.1427607169207786,0.455735880423205,0.31495427399135156,0.4310041390206618,1.6156772628077127,1.4210096943341022,1.6254927053176573,0.4771843296903619,0.29147827074002836,0.4170464094102532,-0.4871480649901774,-0.5974444829953822,-0.5642889461147137,2.0,1.0,17.0
-0.05082179368020527,-0.1692665960631033,-0.1495370297204427,-1.2884755313881333,-0.3960497213989587,-0.5289628643559089,-0.4989496769070665,0.6748917480589294,0.4875909364784817,0.6265369185772326,-0.6193362430017292,-0.7223377312332476,-0.6781582391722041,2.0,1.0,17.0
-1.3091081125866004,-0.6156969364104663,-1.0756931180545057,-1.2884755313881333,-0.3451199243304355,-0.45491327351957944,-0.4192830875736394,-0.6299772131736165,-0.7871413908214647,-0.7561004419248316,-0.4871480649901774,-0.5796025903899729,-0.5453107306051319,2.0,1.0,17.0
-0.24440430428118914,-0.4371248002715211,-0.3577572693153847,-1.2884755313881333,-0.6252338082073138,-0.7264284399194544,-0.7113939151295389,0.951682133774924,0.7621486685123162,0.8988745804943059,-0.4682640395599557,-0.5796025903899729,-0.5453107306051319,3.0,1.0,17.0
1.4010470358271738,1.3485965611179311,1.4050484695178118,-1.2884755313881333,-0.24326033019338875,-0.3808636826832498,-0.3130609684624032,-0.15547940908905428,-0.33608225962302224,-0.27427227084077893,-0.6571042938621724,-0.740179623838657,-0.7161146701913673,3.0,1.0,17.0
0.3363432275217625,0.7235940846316228,0.6136231244510636,-1.2884755313881333,-0.24326033019338875,-0.3808636826832498,-0.3130609684624032,-0.15547940908905428,-0.33608225962302224,-0.27427227084077893,-0.6571042938621724,-0.7580215164440661,-0.7161146701913673,3.0,1.0,17.0
0.3363432275217625,0.5450219484926776,0.30553254369293714,-1.2884755313881333,-0.21779543165912715,-0.33149728879236345,-0.28650543868459416,-0.2543331182733381,-0.4145273259184035,-0.3580684745075707,-0.6382202684319507,-0.740179623838657,-0.7161146701913673,3.0,1.0,17.0
0.23955197222127056,0.455735880423205,0.381848559110088,0.4310041390206618,1.6156772628077127,1.4456928912795455,1.6254927053176573,0.4969550715272187,0.31108953731387373,0.4170464094102532,-0.4871480649901774,-0.5974444829953822,-0.5453107306051319,3.0,1.0,17.0
-0.05082179368020527,-0.1692665960631033,-0.16555397122774607,0.4310041390206618,-0.4979093155360055,0.45836501346181824,-0.206838849351167,-0.1159379254153408,1.1151514668415323,0.3751483075768573,-1.5824215399430341,-0.3476579865196515,-0.7730493167201126,3.0,1.0,17.0
0.4331344828222544,0.36644981235373236,0.4091715769754882,0.4310041390206618,1.6156772628077127,1.4456928912795455,1.6254927053176573,0.4969550715272187,0.31108953731387373,0.4170464094102532,-0.4871480649901774,-0.5974444829953822,-0.5642889461147137,3.0,1.0,17.0
-0.05082179368020527,-0.2585526641325759,-0.1589587600188558,-1.2884755313881333,-0.3451199243304355,-0.45491327351957944,-0.4192830875736394,-0.6299772131736165,-0.8067526573953101,-0.7561004419248316,-0.4682640395599557,-0.5617606977845635,-0.5263325150955502,3.0,1.0,17.0
0.7235082487237302,1.0807383569095133,1.1063796190580986,-1.2884755313881333,-0.6252338082073138,0.06343386233472736,-0.2599499089067851,-2.13255359277473,0.2718670041661831,-0.3999665763409666,-0.7515244210132808,-0.02650391962228361,-0.6971364546817859,3.0,1.0,17.0
-0.43798681488217306,0.009305540075841931,-0.3219546941814126,0.4310041390206618,1.6156772628077127,1.4210096943341022,1.5989371755398483,0.4771843296903619,0.29147827074002836,0.4170464094102532,-0.4871480649901774,-0.5974444829953822,-0.5642889461147137,5.0,0.0,17.0
0.23955197222127056,0.009305540075841931,0.16420658921673217,0.4310041390206618,-0.6506987067415754,-0.5289628643559089,-0.5255052066848755,-0.17525015092591106,-0.2576371933276409,-0.253323219924081,-0.6382202684319507,-0.6688120534170195,-0.6971364546817859,0.0,0.0,21.0
0.4331344828222544,0.27716374428425977,0.3215494852002405,0.4310041390206618,-0.3960497213989587,-0.5289628643559089,-0.4989496769070665,-0.15547940908905428,-0.3164709930491769,-0.253323219924081,-0.6382202684319507,-0.7223377312332476,-0.6971364546817859,0.0,0.0,21.0
-0.14761304898069721,-0.34783873220204853,-0.2154891418093386,0.4310041390206618,-0.6506987067415754,-0.7757948338103408,-0.7379494449073479,0.556267297037789,0.3699233370354097,0.5008426130770449,-0.5815681921412859,-0.6866539460224289,-0.6402018081530406,1.0,1.0,21.0
-0.24440430428118914,-0.2585526641325759,-0.29086298419664763,0.4310041390206618,-0.4215146199332204,-0.5536460613013521,-0.4989496769070665,0.0026865256057997436,-0.13996959388456892,-0.08573081259049743,-0.675988319292394,-0.740179623838657,-0.7161146701913673,1.0,1.0,21.0
-0.534778070182665,-0.704983004479939,-0.6366404861484293,0.4310041390206618,-0.3451199243304355,-0.45491327351957944,-0.4192830875736394,0.35855987866922134,0.3699233370354097,0.4379954603269512,-0.732640395583059,-0.7223377312332476,-0.7350928857009491,1.0,1.0,21.0
-0.43798681488217306,-0.2585526641325759,-0.35398857719601934,0.4310041390206618,-0.4724444170017438,-0.5783292582467953,-0.5520607364626846,-0.056625699904770524,-0.21841466017995026,-0.14857796534059126,-0.6571042938621724,-0.7223377312332476,-0.6971364546817859,1.0,1.0,21.0
0.23955197222127056,0.09859160814531454,0.11709793772466384,0.4310041390206618,-0.8798827935499303,-0.13403171322881807,-0.39272755779583035,-1.40103614481103,1.4485429985969027,0.2704030529933676,-0.8459445481643892,0.09838932861558174,-0.6781582391722041,1.0,1.0,21.0
-0.05082179368020527,-0.2585526641325759,-0.18062873970520762,0.4310041390206618,-0.4215146199332204,-0.47959647046502263,-0.4723941471292574,-0.3334160856207651,-0.33608225962302224,-0.3371194235908727,-0.6571042938621724,-0.6866539460224289,-0.6781582391722041,1.0,1.0,21.0
0.1427607169207786,0.09859160814531454,0.04831930654624372,0.4310041390206618,-1.9494085319889203,1.6184752698976477,-0.5255052066848755,-2.8245295570647166,1.5662105980399748,-0.6723042382580399,-1.0536688278968274,0.7585393550157271,-0.35552857550931477,1.0,1.0,21.0
1.4978382911276658,1.5271686972568763,1.515282714009252,0.4310041390206618,-0.3960497213989587,-0.5042796674104658,-0.4723941471292574,0.6155795225483592,0.46797966990463635,0.5846388167438368,-0.6382202684319507,-0.740179623838657,-0.6971364546817859,1.0,1.0,21.0
-0.3411955595816811,-0.5264108683409937,-0.46045412956809334,0.4310041390206618,-0.3960497213989587,-0.45491327351957944,-0.4458386173514485,0.5167258133640754,0.566036002773863,0.45894451124364916,-0.8081764973039458,-0.740179623838657,-0.7350928857009491,1.0,1.0,21.0
-0.24440430428118914,-0.1692665960631033,-0.1589587600188558,0.4310041390206618,-1.414645662769425,-1.5162907421736358,-1.534615338241619,-0.31364534378390835,-0.49297239221378497,-0.42091562725766457,-0.10946755638574411,-0.2406066308871956,-0.1847246359230793,1.0,1.0,21.0
-0.3411955595816811,-0.1692665960631033,-0.29086298419664763,0.4310041390206618,-0.3451199243304355,-0.47959647046502263,-0.4458386173514485,0.5958087807115026,0.40914587018310034,0.5427407149104408,-0.6571042938621724,-0.7580215164440661,-0.7161146701913673,1.0,1.0,21.0
0.04596946162028667,0.18787767621478715,0.06716276714307132,0.4310041390206618,-0.6252338082073138,-0.7264284399194544,-0.7113939151295389,-0.6892894386841867,-0.6694737913783929,-0.7979985437582275,-0.41161196326929067,-0.4725512347575169,-0.4504196530572234,2.0,1.0,21.0
0.1427607169207786,-0.07998052799363067,0.03889757624783059,0.4310041390206618,-0.44697951846748213,-0.5783292582467953,-0.5520607364626846,0.4178721041797917,0.23264447101849237,0.3332502057434614,-0.675988319292394,-0.740179623838657,-0.7161146701913673,2.0,1.0,21.0
0.04596946162028667,-0.2585526641325759,-0.10242837822837436,0.4310041390206618,-0.7270934023443605,-0.8498444246466702,-0.8176160342407751,0.5760380388746458,0.40914587018310034,0.5217916639937429,-0.5438001412808424,-0.6509701608116102,-0.6212235926434588,2.0,1.0,21.0
-0.43798681488217306,-0.4371248002715211,-0.4321889386728526,0.4310041390206618,-0.4724444170017438,-0.6030124551922386,-0.5786162662404937,-0.19502089276276785,-0.35569352619686756,-0.2952213217574769,-0.6193362430017292,-0.7044958386278383,-0.6781582391722041,2.0,1.0,21.0
0.3363432275217625,0.09859160814531454,0.236753912514517,0.4310041390206618,-0.4215146199332204,-0.5536460613013521,-0.4989496769070665,-0.8079138897053274,-0.9636427899860729,-0.9446419001751132,-0.3738439124088475,-0.45470934215210757,-0.4314414375476417,2.0,1.0,21.0
0.23955197222127056,1.5271686972568763,0.4939671496612104,0.4310041390206618,-0.7525583008786221,-0.8745276215921134,-0.8441715640185842,-0.056625699904770524,-0.21841466017995026,-0.14857796534059126,-0.5438001412808424,-0.6509701608116102,-0.6212235926434588,2.0,1.0,21.0
0.6267169934232383,0.7235940846316228,0.764370809225683,0.4310041390206618,-0.44697951846748213,-0.5536460613013521,-0.5255052066848755,-0.9463090825633246,-1.1009216560029902,-1.0912852565919986,-0.26053975982751737,-0.3654998791250608,-0.31757214449015125,2.0,1.0,21.0
0.23955197222127056,0.009305540075841931,0.11709793772466384,0.4310041390206618,-0.4215146199332204,-0.5536460613013521,-0.5255052066848755,-0.906767598889611,-1.022476589707609,-1.0493871547586027,-0.29830781068796075,-0.40118366433587954,-0.35552857550931477,2.0,1.0,21.0
-0.14761304898069721,-0.34783873220204853,-0.22773739119727593,0.4310041390206618,-1.1345317788925469,-0.5289628643559089,-0.764504974685157,0.1608524603006538,1.1739852665630681,0.45894451124364916,-0.8648285735946108,-0.3476579865196515,-0.6212235926434588,2.0,1.0,21.0
0.3363432275217625,0.009305540075841931,0.18022353072403555,0.4310041390206618,-1.058137083289762,-1.1460427879919886,-1.1628379213522928,0.22016468581122406,0.056143071853884396,0.14470874749317994,-0.44938001412973405,-0.5439188051791541,-0.5073542995859684,2.0,1.0,21.0
-0.05082179368020527,-0.2585526641325759,-0.1495370297204427,0.4310041390206618,-1.9239436334546585,-0.010615728501602174,-0.8972826235742023,-0.3334160856207651,3.3312245896860544,0.5636897658271388,-0.26053975982751737,1.436531274021282,0.1189268122302283,2.0,1.0,21.0
-0.43798681488217306,-0.6156969364104663,-0.5264062416569892,0.4310041390206618,-0.4979093155360055,-0.6030124551922386,-0.5786162662404937,0.5167258133640754,0.44836840333079103,0.479893562160347,-0.6382202684319507,-0.7223377312332476,-0.6971364546817859,2.0,1.0,21.0
-0.24440430428118914,0.7235940846316228,0.22733218221610388,0.4310041390206618,-0.3960497213989587,-0.5042796674104658,-0.4723941471292574,0.4771843296903619,0.31108953731387373,0.4170464094102532,-0.6571042938621724,-0.7580215164440661,-0.7350928857009491,2.0,1.0,21.0
-0.14761304898069721,-0.2585526641325759,-0.2154891418093386,0.4310041390206618,-0.981742387686977,-1.0966763941011022,-1.1097268617966747,1.5448043888806269,1.3700979323015217,1.5692442098286403,0.1171407487769159,-0.008662027016874263,0.08097038121106483,2.0,1.0,21.0
-0.534778070182665,-0.4371248002715211,-0.4953145316722243,0.4310041390206618,-0.4724444170017438,-0.5783292582467953,-0.5520607364626846,-0.0763964417416273,-0.21841466017995026,-0.14857796534059126,-0.6571042938621724,-0.740179623838657,-0.6971364546817859,2.0,1.0,21.0
-0.05082179368020527,-0.2585526641325759,-0.1589587600188558,0.4310041390206618,-1.0836019818240235,-1.1460427879919886,-1.1628379213522928,1.0900773266329213,1.154373999989223,1.1083650896612853,-0.20388768353685233,-0.3119742013088328,-0.26063749796140606,3.0,1.0,21.0
0.04596946162028667,-0.1692665960631033,-0.08641143672107097,0.4310041390206618,-0.8034880979471455,-0.9238940154829999,-0.9238381533520114,0.5364965552009322,0.3503120704615644,0.479893562160347,-0.5249161158506208,-0.6331282682062008,-0.6022453771338772,3.0,1.0,21.0
0.04596946162028667,-0.07998052799363067,0.007805866263065665,0.4310041390206618,-0.8034880979471455,-0.9238940154829999,-0.9238381533520114,0.5364965552009322,0.3503120704615644,0.479893562160347,-0.5249161158506208,-0.6331282682062008,-0.6022453771338772,3.0,1.0,21.0
0.1427607169207786,0.009305540075841931,0.08600622773989891,0.4310041390206618,-0.7780231994128838,-0.8992108185375567,-0.8972826235742023,0.5364965552009322,0.3503120704615644,0.45894451124364916,-0.5438001412808424,-0.6509701608116102,-0.6022453771338772,3.0,1.0,21.0
-0.43798681488217306,0.09859160814531454,-0.10242837822837436,0.4310041390206618,-0.3451199243304355,-0.43023007657413626,-0.39272755779583035,0.2597061694849376,0.21303320444464705,0.29135210391006555,-0.7704084464435025,-0.6688120534170195,-0.7540711012105309,5.0,0.0,21.0
-0.14761304898069721,0.009305540075841931,-0.055319726736306044,0.4310041390206618,-1.79661914078335,-0.405546879628693,-0.8972826235742023,-0.45204053664190563,0.2718670041661831,0.06091254382638815,-0.6948723447226157,0.027021758193944433,-0.5642889461147137,5.0,0.0,21.0
-0.14761304898069721,-0.1692665960631033,-0.196645681212511,0.4310041390206618,-0.37058482286469707,-0.47959647046502263,-0.4458386173514485,0.556267297037789,0.3699233370354097,0.479893562160347,-0.6571042938621724,-0.7580215164440661,-0.7350928857009491,5.0,0.0,21.0
-0.24440430428118914,-0.34783873220204853,-0.33797163568871597,0.4310041390206618,-0.37058482286469707,-0.43023007657413626,-0.4458386173514485,0.556267297037789,0.8209824682338522,0.5217916639937429,-0.675988319292394,-0.7223377312332476,-0.7161146701913673,5.0,0.0,21.0
-0.24440430428118914,-0.1692665960631033,-0.18062873970520762,0.4310041390206618,-0.4215146199332204,-0.5536460613013521,-0.4989496769070665,-0.01708421623105703,-0.17919212703225956,-0.1066798635071954,-0.6571042938621724,-0.740179623838657,-0.7161146701913673,5.0,0.0,21.0
0.04596946162028667,0.36644981235373236,0.2555973731113446,0.4310041390206618,-0.4724444170017438,-0.5783292582467953,-0.5520607364626846,0.0026865256057997436,-0.13996959388456892,-0.06478176167379951,-0.6571042938621724,-0.740179623838657,-0.7161146701913673,5.0,0.0,21.0
-0.6315693254831569,-0.7942690725494116,-0.7308577891325659,0.4310041390206618,-0.5488391126045287,-0.6523788490831249,-0.6317273257961117,0.1608524603006538,-0.022301994441496928,0.0818615947430861,-0.6382202684319507,-0.740179623838657,-0.6971364546817859,5.0,0.0,21.0
-0.6315693254831569,-0.5264108683409937,-0.6300452749395397,0.4310041390206618,-0.5488391126045287,-0.6523788490831249,-0.6317273257961117,0.14108171846379705,-0.022301994441496928,0.0818615947430861,-0.6382202684319507,-0.740179623838657,-0.6971364546817859,5.0,0.0,21.0
0.1427607169207786,-0.07998052799363067,0.03889757624783059,0.4310041390206618,-0.6761636052758371,-0.8004780307557839,-0.764504974685157,-0.09616718357848401,-0.2772484599014863,-0.19047606717398718,-0.5626841667110641,-0.6688120534170195,-0.6402018081530406,5.0,0.0,21.0
-0.05082179368020527,-0.07998052799363067,-0.024228016751541112,0.4310041390206618,-0.4724444170017438,-0.5783292582467953,-0.5520607364626846,0.02245726744265652,-0.13996959388456892,-0.06478176167379951,-0.6571042938621724,-0.740179623838657,-0.7161146701913673,5.0,0.0,21.0
-0.534778070182665,-0.5264108683409937,-0.5103893001496859,0.4310041390206618,-0.37058482286469707,-0.47959647046502263,-0.4458386173514485,0.556267297037789,0.3699233370354097,0.479893562160347,-0.6571042938621724,-0.7580215164440661,-0.7350928857009491,5.0,0.0,21.0
-1.3091081125866004,0.5450219484926776,-0.7459325576100274,0.4310041390206618,-0.19233053312486545,-0.33149728879236345,-0.2599499089067851,0.872599166427497,0.7033148687907804,0.8360274277442121,-0.6193362430017292,-0.7223377312332476,-0.6971364546817859,0.0,0.0,6.0
-1.4058993678870924,-1.3299854809662472,-1.374361968514219,0.4310041390206618,1.895791146684591,1.6925248607339771,1.9176035328735568,-0.35318682745762187,-0.5321949253614755,-0.4628137290910604,-0.26053975982751737,-0.3833417717304702,-0.31757214449015125,0.0,0.0,6.0
-1.1155256019856166,-1.2406994128967745,-1.2141925534411864,0.4310041390206618,1.080914393588218,0.9273457554252386,1.067826579983667,0.4376428460166484,0.29147827074002836,0.39609735849355526,-0.675988319292394,-0.7580215164440661,-0.7350928857009491,0.0,0.0,6.0
-1.2123168572861085,-1.151413344827302,-1.1953490928443595,0.4310041390206618,1.895791146684591,1.6925248607339771,1.9176035328735568,-0.35318682745762187,-0.5321949253614755,-0.4628137290910604,-0.26053975982751737,-0.3833417717304702,-0.31757214449015125,0.0,0.0,6.0
-0.7283605807836488,0.09859160814531454,-0.22396869907791123,0.4310041390206618,1.6920719584104977,1.8899904362975226,1.9176035328735568,-0.6102064713367598,-0.23802592675379555,-0.48376278000775835,-0.2794237852577391,-0.29413230870342366,-0.2985939289805695,0.0,0.0,6.0
-1.0187343466851246,-0.704983004479939,-0.8693572245192467,2.1504838094294567,0.01138865514922782,-0.05998212239248854,0.005605388871305367,2.157697385823186,2.056492262386108,2.218664788246276,0.683661511683566,0.6514879993832711,0.7262297085368434,0.0,0.0,6.0
-1.0187343466851246,-1.2406994128967745,-1.1388187110538774,2.1504838094294567,-0.5233742140702671,2.655169541606261,2.050381181762602,0.4771843296903619,2.6644415261753136,1.3597537006616607,0.5325893082417926,1.722001555707831,1.1247722342380597,0.0,0.0,6.0
-1.4058993678870924,-0.8835551406188842,-1.1548356525611807,0.4310041390206618,-0.8289529964814069,-0.9238940154829999,-0.9238381533520114,-0.0763964417416273,-0.2576371933276409,-0.16952701625728922,-0.5249161158506208,-0.6331282682062008,-0.6022453771338772,0.0,0.0,6.0
-1.2123168572861085,-1.3299854809662472,-1.3112363755148473,-1.2884755313881333,-0.3960497213989587,-0.5289628643559089,-0.4989496769070665,-0.5311235039893327,-0.7283075910999289,-0.6723042382580399,2.7609043090079495,2.471361045135023,2.699964121533342,0.0,0.0,6.0
-1.3091081125866004,-1.0621272767578294,-1.1699104210386424,-1.2884755313881333,-0.3960497213989587,-0.5289628643559089,-0.4723941471292574,-0.5706649876630462,-0.7675301242476195,-0.7142023400914357,2.7420202835777276,2.4535191525296134,2.680985906023761,0.0,0.0,6.0
-1.4058993678870924,-1.3299854809662472,-1.3140628946043715,0.4310041390206618,-1.8475489378518735,-1.787805908573511,-1.959503814686564,-0.6497479550104732,-0.7086963245260836,-0.7770494928415296,0.4948212573813493,0.5087528585399964,0.5933821999697714,0.0,0.0,6.0
-1.1155256019856166,-0.8835551406188842,-1.0756931180545057,2.1504838094294567,0.01138865514922782,-0.05998212239248854,-0.020950140906503666,2.157697385823186,2.0172697292384174,2.1977157373295784,0.6647774862533443,0.5979623215670431,0.6503168464985166,0.0,0.0,6.0
-1.5026906231875843,-1.6871297532441376,-1.6099052259745605,0.4310041390206618,-0.7525583008786221,-0.8498444246466702,-0.8441715640185842,0.6551210062220728,0.4875909364784817,0.6055878676605346,-0.5438001412808424,-0.6331282682062008,-0.6022453771338772,0.0,0.0,6.0
-0.14761304898069721,0.009305540075841931,-0.024228016751541112,2.1504838094294567,-0.8544178950156686,-0.47959647046502263,-0.7113939151295389,1.683199581738624,1.9192133963691906,1.967276177245901,1.7033988849155361,1.9717880521835616,1.7510533460542563,0.0,0.0,6.0
-1.0187343466851246,-0.9728412086883568,-1.0314109856519615,0.4310041390206618,1.7175368569447595,1.5937920729522044,1.7317148244288936,-0.1159379254153408,-0.17919212703225956,-0.2114251180906851,-0.43049598869951233,-0.526076912573745,-0.4883760840763867,1.0,1.0,6.0
-1.5026906231875843,-1.5085576171051924,-1.5156879229904239,0.4310041390206618,-0.7525583008786221,-0.8498444246466702,-0.8441715640185842,0.6155795225483592,0.46797966990463635,0.5846388167438368,-0.5438001412808424,-0.6509701608116102,-0.6022453771338772,1.0,1.0,6.0
-1.5026906231875843,-1.5085576171051924,-1.5156879229904239,0.4310041390206618,-1.8220840393176119,-1.9112218933007268,-1.986059344464373,-0.6497479550104732,-0.8067526573953101,-0.7770494928415296,0.6458934608231226,0.4909109659345871,0.5933821999697714,1.0,1.0,6.0
-1.5026906231875843,-1.6871297532441376,-1.6099052259745605,0.4310041390206618,-0.7525583008786221,-0.8745276215921134,-0.8441715640185842,0.635350264385216,0.46797966990463635,0.5846388167438368,-0.5438001412808424,-0.6331282682062008,-0.6022453771338772,1.0,1.0,6.0
-1.5026906231875843,-1.0621272767578294,-1.3649402382158051,0.4310041390206618,1.0045196979854327,0.8286129676434659,0.9616044608724311,0.3190183949955079,0.13458813814926573,0.24945400207666965,-0.6948723447226157,-0.7937053016548848,-0.7730493167201126,1.0,1.0,6.0
-1.4058993678870924,-1.5085576171051924,-1.4996709814831206,0.4310041390206618,-0.7525583008786221,-0.8498444246466702,-0.8441715640185842,0.635350264385216,0.44836840333079103,0.5636897658271388,-0.5438001412808424,-0.6509701608116102,-0.6022453771338772,1.0,1.0,6.0
-1.4058993678870924,-1.5085576171051924,-1.484596213005659,0.4310041390206618,-0.7525583008786221,-0.8498444246466702,-0.8441715640185842,0.6155795225483592,0.44836840333079103,0.5636897658271388,-0.5438001412808424,-0.6509701608116102,-0.6022453771338772,1.0,1.0,6.0
-1.5026906231875843,-0.9728412086883568,-1.343270258529454,0.4310041390206618,1.131844190656741,0.9767121493161249,1.1209376395392852,0.5167258133640754,0.38953460360925507,0.5008426130770449,-0.6571042938621724,-0.740179623838657,-0.7161146701913673,1.0,1.0,6.0
-1.1155256019856166,-1.0621272767578294,-1.1520091334716565,-1.2884755313881333,-0.3960497213989587,-0.5289628643559089,-0.4723941471292574,-0.5311235039893327,-0.7283075910999289,-0.6723042382580399,2.7609043090079495,2.4535191525296134,2.699964121533342,1.0,1.0,6.0
-1.5026906231875843,-1.6871297532441376,-1.6099052259745605,0.4310041390206618,-0.7525583008786221,-0.8498444246466702,-0.8441715640185842,0.6155795225483592,0.44836840333079103,0.5636897658271388,-0.5438001412808424,-0.6509701608116102,-0.6022453771338772,1.0,1.0,6.0
-1.5026906231875843,-1.41927154903572,-1.3903789100215225,0.4310041390206618,-1.3127860686323787,-1.4175579543918633,-1.4283932191303832,0.7539747154063565,0.5856472693477083,0.7103331222440245,-0.2416557343972957,-0.3476579865196515,-0.2796157134709878,2.0,1.0,6.0
-0.7283605807836488,-0.8835551406188842,-0.7779664406246343,0.4310041390206618,1.131844190656741,0.9767121493161249,1.1209376395392852,0.5364965552009322,0.38953460360925507,0.5008426130770449,-0.6571042938621724,-0.740179623838657,-0.7161146701913673,2.0,1.0,6.0
-1.4058993678870924,-1.5978436851746651,-1.5156879229904239,0.4310041390206618,-1.3127860686323787,-1.4175579543918633,-1.4549487489081923,0.5364965552009322,0.3503120704615644,0.45894451124364916,-0.2794237852577391,-0.40118366433587954,-0.336550359999733,2.0,1.0,6.0
-1.4058993678870924,-1.3299854809662472,-1.4374875615135907,0.4310041390206618,-1.3382509671666403,-1.3928747574464202,-1.4549487489081923,0.7342039735694997,0.6052585359215537,0.7103331222440245,-0.31719183611818247,-0.32981609391424216,-0.2796157134709878,2.0,1.0,6.0
-1.5026906231875843,-1.5978436851746651,-1.5345313835872516,0.4310041390206618,2.048580537890161,1.8653072393520795,2.0769367115404114,1.129618810306635,0.9582613342507698,1.1083650896612853,0.003836596195585993,-0.1335552752547395,-0.051877127356007136,3.0,1.0,6.0
-1.3091081125866004,-1.3299854809662472,-1.3140628946043715,0.4310041390206618,2.0740454364244227,1.8653072393520795,2.0769367115404114,1.1691602939803483,0.9778726008246148,1.1502631914946813,0.04160464705602936,-0.0978714900439208,-0.0328989118464254,3.0,1.0,6.0
-0.9219430913846327,-0.9728412086883568,-0.9503841050856041,0.4310041390206618,1.7430017554790211,1.5444256790613182,1.7582703542067026,0.3387891368323646,0.19342193787080172,0.29135210391006555,-0.44938001412973405,-0.5617606977845635,-0.5263325150955502,3.0,1.0,6.0
-0.8251518360841408,-0.9728412086883568,-0.8721837436087708,0.4310041390206618,2.0740454364244227,1.8653072393520795,2.0769367115404114,1.109848068469778,0.919038801103079,1.0664669878278894,-0.015047429234635692,-0.15139716786014884,-0.07085534286558888,3.0,1.0,6.0
-1.5026906231875843,-1.6871297532441376,-1.6099052259745605,0.4310041390206618,-1.363715865700902,-1.3928747574464202,-1.4283932191303832,0.7342039735694997,0.566036002773863,0.6893840713273265,-0.2416557343972957,-0.32981609391424216,-0.2985939289805695,3.0,1.0,6.0
-1.4058993678870924,-1.41927154903572,-1.405453678498984,0.4310041390206618,-1.3382509671666403,-1.4175579543918633,-1.4283932191303832,0.45741358785350517,0.3699233370354097,0.4379954603269512,-0.31719183611818247,-0.40118366433587954,-0.35552857550931477,3.0,1.0,6.0
-1.1155256019856166,-1.151413344827302,-1.1256282886360982,0.4310041390206618,2.0995103349586843,1.8899904362975226,2.10349224131822,1.1889310358172052,0.9974838673984602,1.1502631914946813,0.06048867248625105,-0.08002959743851165,0.005057519172737869,3.0,1.0,6.0
-1.1155256019856166,-1.0621272767578294,-1.1765056322475318,0.4310041390206618,2.0740454364244227,1.8653072393520795,2.10349224131822,1.1493895521434916,0.9582613342507698,1.1083650896612853,0.022720621625807676,-0.11571338264933016,-0.0328989118464254,3.0,1.0,6.0
-1.3091081125866004,-1.151413344827302,-1.1699104210386424,0.4310041390206618,-1.3127860686323787,-1.4175579543918633,-1.4283932191303832,0.4969550715272187,0.33070080388771905,0.4379954603269512,-0.29830781068796075,-0.40118366433587954,-0.35552857550931477,3.0,1.0,6.0
-1.1155256019856166,-1.151413344827302,-1.1388187110538774,0.4310041390206618,1.3610282774650961,1.1741777248796703,1.359937407539567,0.6551210062220728,0.46797966990463635,0.5846388167438368,-0.5626841667110641,-0.6688120534170195,-0.6402018081530406,5.0,0.0,6.0
-1.4058993678870924,-1.2406994128967745,-1.343270258529454,0.4310041390206618,1.3864931759993577,1.1988609218251134,1.359937407539567,0.635350264385216,0.46797966990463635,0.5846388167438368,-0.5626841667110641,-0.6688120534170195,-0.6212235926434588,5.0,0.0,6.0
-1.1155256019856166,-0.9728412086883568,-1.0446014080697408,0.4310041390206618,-1.0836019818240235,-1.195409181882875,-1.2159489809079105,0.3387891368323646,0.17381067129695638,0.2704030529933676,-0.43049598869951233,-0.5439188051791541,-0.4883760840763867,5.0,0.0,6.0
-1.5026906231875843,-1.3299854809662472,-1.3583450270069155,-1.2884755313881333,1.972185842287376,1.7665744515703068,1.970714592429175,-1.2626409519530328,-1.4147019211845155,-1.4264700712591658,1.306834350880881,1.0975353145185043,1.2576197428051317,5.0,0.0,6.0
-1.1155256019856166,-1.151413344827302,-1.122801769546574,0.4310041390206618,-1.3382509671666403,-1.4175579543918633,-1.4549487489081923,0.5167258133640754,0.3503120704615644,0.45894451124364916,-0.2794237852577391,-0.3833417717304702,-0.336550359999733,5.0,0.0,6.0
-1.0187343466851246,-1.151413344827302,-1.122801769546574,-1.2884755313881333,1.972185842287376,1.7665744515703068,1.970714592429175,-1.242870210116176,-1.4343131877583608,-1.4264700712591658,1.306834350880881,1.0975353145185043,1.2386415272955498,5.0,0.0,6.0
-1.1155256019856166,-0.07998052799363067,-0.9692275656824317,0.4310041390206618,1.3864931759993577,1.1988609218251134,1.3864929373173756,0.6551210062220728,0.46797966990463635,0.6055878676605346,-0.5626841667110641,-0.6688120534170195,-0.6212235926434588,5.0,0.0,6.0
-1.4058993678870924,-1.5085576171051924,-1.4525623299910522,0.4310041390206618,-1.3127860686323787,-1.4175579543918633,-1.4283932191303832,0.556267297037789,0.3699233370354097,0.479893562160347,-0.2794237852577391,-0.40118366433587954,-0.336550359999733,5.0,0.0,6.0
1.304255780526682,2.152171173743185,1.518109233098776,0.4310041390206618,-1.6692946481120419,-0.47959647046502263,-1.4018376893525741,-1.480119112158457,2.3310499944199425,1.0036198350777956,-0.015047429234635692,2.471361045135023,1.1247722342380597,0.0,0.0,5.0
0.3363432275217625,0.009305540075841931,0.18022353072403555,-1.2884755313881333,-0.6761636052758371,-0.8004780307557839,-0.791060504462966,0.08176949295322679,-0.10074706073687825,-0.001934608923705677,-0.5815681921412859,-0.6688120534170195,-0.6402018081530406,0.0,0.0,5.0
0.7235082487237302,0.5450219484926776,0.6513100456447187,0.4310041390206618,1.2846335818623111,2.9513679049515793,1.6786037648732755,0.2597061694849376,1.330875399153831,1.2340593951614731,-0.33607586154840413,0.5444366437508151,-0.16574642041349757,0.0,0.0,5.0
0.1427607169207786,0.27716374428425977,0.1236931489335541,0.4310041390206618,0.6480111185057694,0.45836501346181824,0.5898270439831044,0.7737454572432133,0.5856472693477083,0.7312821731607224,-0.675988319292394,-0.7758634090494755,-0.7350928857009491,0.0,0.0,5.0
1.4010470358271738,1.5271686972568763,1.5303574824867134,-1.2884755313881333,-0.16686563459060377,-0.3068140918469203,-0.23339437912897606,-1.6185143050164543,-1.7873159860875767,-1.8035529877597287,1.5712107069039845,1.347321810994235,1.504336544429694,1.0,1.0,5.0
0.3363432275217625,0.36644981235373236,0.3215494852002405,-1.2884755313881333,-0.44697951846748213,-0.5783292582467953,-0.5520607364626846,0.7737454572432133,0.5856472693477083,0.7103331222440245,-0.5626841667110641,-0.6866539460224289,-0.6402018081530406,1.0,1.0,5.0
1.110673269925698,0.9021662207705681,0.9716488757907839,0.4310041390206618,0.5716164229029844,0.3843154226254887,0.5101604546496772,-1.6975972723638812,-1.8853723189568035,-1.9082982423432184,1.1935301982995512,0.9726420662806391,1.1247722342380597,1.0,1.0,5.0
1.013882014625206,1.2593104930484584,1.047022718178093,-1.2884755313881333,-0.6252338082073138,-0.7511116368648976,-0.7379494449073479,-0.056625699904770524,-0.23802592675379555,-0.14857796534059126,-0.5626841667110641,-0.6688120534170195,-0.6402018081530406,1.0,1.0,5.0
0.8202995040242222,0.8128801527010955,0.8237277101056887,-1.2884755313881333,-0.14140073605634215,-0.3068140918469203,-0.23339437912897606,-1.6185143050164543,-1.7873159860875767,-1.8035529877597287,1.5712107069039845,1.347321810994235,1.5233147599392758,1.0,1.0,5.0
1.110673269925698,1.5271686972568763,1.3739567595330469,-1.2884755313881333,-0.16686563459060377,-0.3068140918469203,-0.23339437912897606,-1.6185143050164543,-1.7873159860875767,-1.8035529877597287,1.5712107069039845,1.3294799183888257,1.504336544429694,1.0,1.0,5.0
1.110673269925698,1.170024424978986,1.0281792575812654,0.4310041390206618,0.7753356111770777,0.6064641951344774,0.7226046928721497,-0.8079138897053274,-0.9832540565599183,-0.9655909510918111,2.7042522327172844,2.3999934747133858,2.6430294750045973,2.0,1.0,5.0
0.9170907593247142,0.7235940846316228,0.839744651612992,-1.2884755313881333,-0.09047093898781879,-0.25744769795603395,-0.18028331957335794,-1.6778265305270246,-1.8461497858091127,-1.8873491914265206,1.0424579948577777,0.8299069254373644,0.9729465101614057,2.0,1.0,5.0
0.8202995040242222,0.8128801527010955,0.8868533031050604,-1.2884755313881333,-0.6252338082073138,-0.7511116368648976,-0.7379494449073479,-0.056625699904770524,-0.23802592675379555,-0.16952701625728922,-0.5626841667110641,-0.6688120534170195,-0.6402018081530406,2.0,1.0,5.0
0.3363432275217625,0.455735880423205,0.4468584981691421,-1.2884755313881333,-0.44697951846748213,-0.5783292582467953,-0.5255052066848755,0.7935161990800701,0.624869802495399,0.7312821731607224,-0.5626841667110641,-0.6866539460224289,-0.6402018081530406,2.0,1.0,5.0
1.013882014625206,0.8128801527010955,0.9339619545971286,-1.2884755313881333,-0.3960497213989587,-0.5536460613013521,-0.4989496769070665,1.5645751307174836,1.3504866657276762,1.5482951589119422,-0.14723560724618748,-0.29413230870342366,-0.2226810669422428,2.0,1.0,5.0
1.013882014625206,0.9914522888400407,1.0281792575812654,0.4310041390206618,1.437422973067881,1.248227315716,1.4130484670951846,-0.0763964417416273,-0.2576371933276409,-0.16952701625728922,-0.5438001412808424,-0.6509701608116102,-0.6212235926434588,2.0,1.0,5.0
-0.05082179368020527,0.09859160814531454,0.045492787456719516,2.1504838094294567,1.6156772628077127,1.396326497388659,1.5989371755398483,-0.1159379254153408,-0.3164709930491769,-0.23237416900738306,2.7420202835777276,2.4535191525296134,2.699964121533342,2.0,1.0,5.0
0.7235082487237302,0.5450219484926776,0.6324665850478911,-1.2884755313881333,-0.44697951846748213,-0.5783292582467953,-0.5255052066848755,0.7737454572432133,0.6052585359215537,0.7312821731607224,-0.5815681921412859,-0.6866539460224289,-0.6402018081530406,2.0,1.0,5.0
0.3363432275217625,0.9021662207705681,0.678633063510119,-1.2884755313881333,-0.4215146199332204,-0.5783292582467953,-0.5255052066848755,0.7935161990800701,0.624869802495399,0.7522312240774204,-0.5626841667110641,-0.6866539460224289,-0.6402018081530406,2.0,1.0,5.0
0.7235082487237302,0.5450219484926776,0.6202183356599538,2.1504838094294567,1.080914393588218,0.8779793615343523,1.0412710502058584,0.8528284245906402,0.6640923356430897,0.8150783768275142,2.87420846158928,2.5605705081620695,2.8138334145908326,3.0,1.0,5.0
1.110673269925698,0.9914522888400407,0.9810706060891969,2.1504838094294567,1.0299845965196945,0.8532961645889091,1.0147155204280494,2.177468127660043,1.9584359295168814,2.1977157373295784,1.0235739694275559,0.8299069254373644,0.953968294651824,3.0,1.0,5.0
1.110673269925698,0.9914522888400407,1.1035530999685743,2.1504838094294567,1.0299845965196945,0.8532961645889091,1.0147155204280494,2.157697385823186,1.9584359295168814,2.1977157373295784,1.0046899439973342,0.8120650328319551,0.9349900791422423,3.0,1.0,5.0
0.7235082487237302,0.7235940846316228,0.7832142698225105,2.1504838094294567,1.0554494950539561,0.8779793615343523,1.0147155204280494,0.8528284245906402,0.6444810690692444,0.7941293259108162,2.87420846158928,2.5605705081620695,2.8138334145908326,3.0,1.0,5.0
1.4010470358271738,1.2593104930484584,1.2797394565489102,2.1504838094294567,0.8771952053141243,0.6805137859708068,0.8288268119833858,2.1972388694969,1.9976584626645721,2.218664788246276,1.0424579948577777,0.8299069254373644,0.9729465101614057,3.0,1.0,5.0
1.20746452522619,0.9021662207705681,1.0847096393717468,0.4310041390206618,0.8771952053141243,0.6805137859708068,0.8288268119833858,2.1972388694969,1.9976584626645721,2.218664788246276,1.0424579948577777,0.8299069254373644,0.9729465101614057,3.0,1.0,5.0
0.8202995040242222,0.7235940846316228,0.7926360001209237,2.1504838094294567,1.0554494950539561,0.8532961645889091,1.0147155204280494,0.8528284245906402,0.6444810690692444,0.7941293259108162,2.87420846158928,2.5605705081620695,2.8138334145908326,3.0,1.0,5.0
1.110673269925698,0.8128801527010955,0.9650536645818936,2.1504838094294567,0.902660103848386,0.8779793615343523,0.9616044608724311,2.1379266439863294,1.9780471960907267,2.1977157373295784,0.8536177405555609,0.9191163884644111,0.953968294651824,3.0,1.0,5.0
0.8202995040242222,0.9914522888400407,0.9028702446123638,0.4310041390206618,1.5647474657391893,1.3716433004432158,1.5723816457620392,0.27947691132179436,0.09536560500157507,0.1866068493265758,-0.5249161158506208,-0.6331282682062008,-0.5832671616242954,3.0,1.0,5.0
1.013882014625206,0.7235940846316228,0.8708363615977569,0.4310041390206618,1.0045196979854327,0.8286129676434659,0.9881599906502402,2.177468127660043,1.9584359295168814,2.1977157373295784,1.0424579948577777,0.8299069254373644,0.9729465101614057,3.0,1.0,5.0
0.9170907593247142,0.6343080165621502,0.7926360001209237,2.1504838094294567,1.0554494950539561,0.8779793615343523,1.0147155204280494,0.8528284245906402,0.6444810690692444,0.7941293259108162,2.87420846158928,2.5605705081620695,2.8138334145908326,3.0,1.0,5.0
2.272168333531601,2.3307433098821297,2.3472214993591782,-1.2884755313881333,0.16417804635479782,0.014067468443840991,0.08527197820473251,0.7342039735694997,0.566036002773863,0.6893840713273265,-0.675988319292394,-0.7937053016548848,-0.7540711012105309,5.0,0.0,5.0
2.272168333531601,2.152171173743185,2.18987860337567,2.1504838094294567,1.0045196979854327,0.8039297706980227,0.9616044608724311,0.9319113919380674,0.7229261353646258,0.877925529577608,2.8553244361590577,2.5605705081620695,2.7948551990812516,5.0,0.0,5.0
2.272168333531601,2.062885105673712,2.18987860337567,-1.2884755313881333,0.16417804635479782,0.03875066538928419,0.11182750798254154,0.7342039735694997,0.566036002773863,0.6893840713273265,-0.6948723447226157,-0.7937053016548848,-0.7540711012105309,5.0,0.0,5.0
0.9170907593247142,0.7235940846316228,0.8086529416282271,-1.2884755313881333,-0.6252338082073138,-0.7511116368648976,-0.7379494449073479,-0.056625699904770524,-0.23802592675379555,-0.14857796534059126,-0.5626841667110641,-0.6688120534170195,-0.6402018081530406,5.0,0.0,5.0
1.7882120570291415,1.5271686972568763,1.6405917269781534,-1.2884755313881333,1.208238886259526,1.0260785432070114,1.2006042288727123,-0.23456237643648134,-0.4145273259184035,-0.3580684745075707,-0.5815681921412859,-0.6866539460224289,-0.6402018081530406,5.0,0.0,5.0
1.4978382911276658,1.4378826291874036,1.4992657725019485,-1.2884755313881333,1.2337037847937877,1.0260785432070114,1.2006042288727123,-0.23456237643648134,-0.4145273259184035,-0.3580684745075707,-0.5815681921412859,-0.6866539460224289,-0.6402018081530406,5.0,0.0,5.0
0.4331344828222544,0.27716374428425977,0.3498146760954812,-1.2884755313881333,-0.14140073605634215,-0.3068140918469203,-0.23339437912897606,-1.658055788690168,-1.8461497858091127,-1.8664001405098225,1.0046899439973342,0.7942231402265457,0.9349900791422423,5.0,0.0,5.0
0.5299257381227463,0.27716374428425977,0.3875015972891364,2.1504838094294567,1.0045196979854327,0.8039297706980227,0.9616044608724311,0.9319113919380674,0.7229261353646258,0.877925529577608,2.8553244361590577,2.5605705081620695,2.7948551990812516,5.0,0.0,5.0
1.4010470358271738,1.4378826291874036,1.4050484695178118,-1.2884755313881333,1.208238886259526,1.0260785432070114,1.2006042288727123,-0.23456237643648134,-0.4145273259184035,-0.3580684745075707,-0.5626841667110641,-0.6866539460224289,-0.6402018081530406,5.0,0.0,5.0
0.9170907593247142,0.7235940846316228,0.9028702446123638,-1.2884755313881333,-0.5488391126045287,-0.677062046028568,-0.6582828555739207,0.8923699082643538,0.7229261353646258,0.8569764786609101,-0.5060320904203991,-0.6152863756007915,-0.5642889461147137,5.0,0.0,5.0
0.4331344828222544,0.27716374428425977,0.33097121549865366,-1.2884755313881333,-0.44697951846748213,-0.5783292582467953,-0.5255052066848755,0.7935161990800701,0.6052585359215537,0.7312821731607224,-0.5815681921412859,-0.6688120534170195,-0.6402018081530406,5.0,0.0,5.0
0.3363432275217625,0.27716374428425977,0.2744408337081722,-1.2884755313881333,-0.14140073605634215,-0.28213089490147714,-0.206838849351167,-1.658055788690168,-1.8461497858091127,-1.8664001405098225,1.0046899439973342,0.8120650328319551,0.953968294651824,5.0,0.0,5.0
1.304255780526682,1.170024424978986,1.197770402952711,0.4310041390206618,0.6225462199715078,0.4336818165163751,0.5632715142052953,0.8132869409169269,0.6052585359215537,0.7522312240774204,-0.6571042938621724,-0.7758634090494755,-0.7350928857009491,5.0,0.0,5.0
0.7235082487237302,0.6343080165621502,0.729510407121552,-1.2884755313881333,-0.6252338082073138,-0.7757948338103408,-0.7379494449073479,-0.056625699904770524,-0.23802592675379555,-0.14857796534059126,-0.5815681921412859,-0.6688120534170195,-0.6402018081530406,5.0,0.0,5.0
0.8202995040242222,0.6343080165621502,0.7766190586136203,-1.2884755313881333,-0.14140073605634215,-0.3068140918469203,-0.23339437912897606,-1.658055788690168,-1.8461497858091127,-1.8664001405098225,0.9858059185671127,0.7942231402265457,0.9349900791422423,5.0,0.0,5.0
1.4010470358271738,1.5271686972568763,1.4210654110251153,0.4310041390206618,0.6225462199715078,0.4336818165163751,0.5632715142052953,0.8132869409169269,0.6052585359215537,0.7522312240774204,-0.6571042938621724,-0.7758634090494755,-0.7350928857009491,5.0,0.0,5.0
1.013882014625206,0.7235940846316228,0.8557615931202954,-1.2884755313881333,-0.14140073605634215,-0.3068140918469203,-0.23339437912897606,-1.658055788690168,-1.8461497858091127,-1.8664001405098225,0.9858059185671127,0.7942231402265457,0.9349900791422423,5.0,0.0,5.0
-0.6315693254831569,-0.07998052799363067,-0.3982707095985635,0.4310041390206618,1.513817668670666,1.3469601034977727,1.492715056428612,0.0026865256057997436,-0.17919212703225956,-0.1066798635071954,-0.5438001412808424,-0.6331282682062008,-0.6022453771338772,0.0,0.0,3.0
-0.9219430913846327,-0.07998052799363067,-0.6206235446411259,0.4310041390206618,-0.8034880979471455,-0.7017452429740112,-0.764504974685157,1.920448483780905,1.9584359295168814,2.072021431829391,1.1746461728693294,1.507898844442919,1.2765979583147133,0.0,0.0,3.0
-1.4058993678870924,-1.5085576171051924,-1.4525623299910522,0.4310041390206618,-1.0072072862212387,-0.03529892544704534,-0.5520607364626846,0.8923699082643538,2.0172697292384174,1.9253780754125052,-0.6571042938621724,1.7041596631024216,0.7831643550655886,0.0,0.0,3.0
-0.43798681488217306,-0.4371248002715211,-0.448205880180156,0.4310041390206618,1.4883527701364043,1.3222769065523294,1.492715056428612,0.0026865256057997436,-0.17919212703225956,-0.1066798635071954,-0.5815681921412859,-0.6331282682062008,-0.6022453771338772,0.0,0.0,3.0
-0.7283605807836488,-0.9728412086883568,-0.8561668021014675,0.4310041390206618,-0.3451199243304355,-0.47959647046502263,-0.4192830875736394,-0.45204053664190563,-0.6106399916568569,-0.56755898367455,2.798672359868393,2.524886722951251,2.756898768062088,0.0,0.0,3.0
-0.6315693254831569,-0.704983004479939,-0.7054191173268487,0.4310041390206618,1.4883527701364043,1.3222769065523294,1.492715056428612,0.0026865256057997436,-0.17919212703225956,-0.08573081259049743,-0.5438001412808424,-0.6509701608116102,-0.6212235926434588,1.0,1.0,3.0
-0.43798681488217306,-0.5264108683409937,-0.448205880180156,0.4310041390206618,1.4883527701364043,1.3222769065523294,1.492715056428612,0.0026865256057997436,-0.17919212703225956,-0.1066798635071954,-0.5438001412808424,-0.6509701608116102,-0.6022453771338772,1.0,1.0,3.0
-0.8251518360841408,-0.4371248002715211,-0.7459325576100274,0.4310041390206618,1.4883527701364043,1.3222769065523294,1.492715056428612,0.0026865256057997436,-0.17919212703225956,-0.1066798635071954,-0.5438001412808424,-0.6509701608116102,-0.6022453771338772,1.0,1.0,3.0
-0.534778070182665,-0.704983004479939,-0.6517152546258907,0.4310041390206618,1.4883527701364043,1.3222769065523294,1.492715056428612,0.0026865256057997436,-0.17919212703225956,-0.08573081259049743,-0.5626841667110641,-0.6509701608116102,-0.6212235926434588,1.0,1.0,3.0
-0.6315693254831569,-0.5264108683409937,-0.5424231831642926,0.4310041390206618,1.4883527701364043,1.3222769065523294,1.492715056428612,0.0026865256057997436,-0.15958086045841424,-0.08573081259049743,-0.5438001412808424,-0.6331282682062008,-0.6212235926434588,1.0,1.0,3.0
-0.6315693254831569,-0.7942690725494116,-0.6837491376404976,0.4310041390206618,1.4883527701364043,1.3222769065523294,1.492715056428612,0.0026865256057997436,-0.17919212703225956,-0.08573081259049743,-0.5438001412808424,-0.6509701608116102,-0.6212235926434588,1.0,1.0,3.0
-0.9219430913846327,-0.8835551406188842,-0.8872585120862324,0.4310041390206618,1.2846335818623111,1.1001281340433409,1.2537152884283307,0.4969550715272187,0.29147827074002836,0.4170464094102532,-0.6193362430017292,-0.7223377312332476,-0.6971364546817859,2.0,1.0,3.0
-0.6315693254831569,-0.7942690725494116,-0.6988239061179591,0.4310041390206618,1.4883527701364043,1.3222769065523294,1.492715056428612,0.0026865256057997436,-0.17919212703225956,-0.08573081259049743,-0.5438001412808424,-0.6509701608116102,-0.6212235926434588,2.0,1.0,3.0
-0.6315693254831569,-0.6156969364104663,-0.5895318346563609,0.4310041390206618,1.4883527701364043,1.3222769065523294,1.492715056428612,0.0026865256057997436,-0.15958086045841424,-0.08573081259049743,-0.5626841667110641,-0.6509701608116102,-0.6212235926434588,2.0,1.0,3.0
-1.2123168572861085,-1.0621272767578294,-1.233036014038014,0.4310041390206618,-0.2941901272619121,-0.43023007657413626,-0.39272755779583035,-0.3334160856207651,-0.5125836587876301,-0.4418646781743624,2.8553244361590577,2.5605705081620695,2.8138334145908326,2.0,1.0,3.0
-1.1155256019856166,-1.151413344827302,-1.1388187110538774,0.4310041390206618,-0.09047093898781879,-0.23276450101059082,-0.18028331957335794,-0.13570866725219757,-0.33608225962302224,-0.253323219924081,2.949744563310166,2.631938078583707,2.8897462766291597,2.0,1.0,3.0
-1.2123168572861085,-1.2406994128967745,-1.233036014038014,0.4310041390206618,1.513817668670666,1.3469601034977727,1.519270586206421,-0.01708421623105703,-0.1988033936061049,-0.12762891442389337,-0.5249161158506208,-0.6331282682062008,-0.6022453771338772,2.0,1.0,3.0
-1.2123168572861085,-1.41927154903572,-1.3272533170221505,0.4310041390206618,-0.2941901272619121,-0.43023007657413626,-0.39272755779583035,-0.39272831113133544,-0.5714174585091661,-0.5256608818411542,2.8364404107288363,2.5427286155566606,2.7948551990812516,2.0,1.0,3.0
-0.9219430913846327,-0.8835551406188842,-0.8561668021014675,0.4310041390206618,1.2591686833280493,1.1001281340433409,1.2537152884283307,0.4771843296903619,0.29147827074002836,0.4170464094102532,-0.6193362430017292,-0.7223377312332476,-0.6971364546817859,2.0,1.0,3.0
-0.6315693254831569,-0.34783873220204853,-0.535827971955403,0.4310041390206618,-1.1854615759610703,-1.2941419696646472,-1.2956155702413377,-0.01708421623105703,-0.17919212703225956,-0.1066798635071954,-0.3738439124088475,-0.4725512347575169,-0.4314414375476417,2.0,1.0,3.0
-0.3411955595816811,-0.5264108683409937,-0.4416106689712664,0.4310041390206618,-1.1854615759610703,-1.2941419696646472,-1.322171100019147,-0.01708421623105703,-0.1988033936061049,-0.12762891442389337,-0.3738439124088475,-0.4725512347575169,-0.4314414375476417,2.0,1.0,3.0
-0.534778070182665,-0.6156969364104663,-0.5264062416569892,0.4310041390206618,-0.5488391126045287,-0.677062046028568,-0.6582828555739207,-0.17525015092591106,-0.35569352619686756,-0.27427227084077893,2.8364404107288363,2.5427286155566606,2.7948551990812516,5.0,0.0,3.0
-0.6315693254831569,-0.704983004479939,-0.6865756567300217,0.4310041390206618,-0.5743040111387904,-0.7017452429740112,-0.6848383853517298,-0.17525015092591106,-0.3753047927707129,-0.2952213217574769,2.8364404107288363,2.5427286155566606,2.7758769835716692,5.0,0.0,3.0
-1.4058993678870924,-1.151413344827302,-1.2895663958284962,0.4310041390206618,-1.1854615759610703,-1.2694587727192042,-1.2956155702413377,-0.01708421623105703,-0.17919212703225956,-0.1066798635071954,-0.3738439124088475,-0.4903931273629263,-0.4314414375476417,5.0,0.0,3.0
-0.534778070182665,-0.5264108683409937,-0.55467143255223,0.4310041390206618,-1.1854615759610703,-1.2694587727192042,-1.2956155702413377,-0.01708421623105703,-0.17919212703225956,-0.1066798635071954,-0.3738439124088475,-0.4903931273629263,-0.4314414375476417,5.0,0.0,3.0
0.3363432275217625,0.7235940846316228,0.678633063510119,0.4310041390206618,0.3424323360946295,0.18684984706194327,0.29771621642720486,-1.7173680142007381,-1.8853723189568035,-1.9082982423432184,1.306834350880881,1.1153772071239136,1.2576197428051317,0.0,0.0,7.0
0.7235082487237302,0.5450219484926776,0.6324665850478911,2.1504838094294567,1.3610282774650961,1.2235441187705567,1.359937407539567,0.5364965552009322,0.507202203052327,0.5846388167438368,2.798672359868393,2.5605705081620695,2.7758769835716692,0.0,0.0,7.0
-0.24440430428118914,-0.1692665960631033,-0.16555397122774607,0.4310041390206618,0.46975682876593783,0.28558263484371593,0.4039383355384411,-1.6975972723638812,-1.865761052382958,-1.9082982423432184,1.4012544780319893,1.2045866701509604,1.3525108203530403,0.0,0.0,7.0
0.9170907593247142,0.7235940846316228,0.8086529416282271,0.4310041390206618,0.3424323360946295,0.18684984706194327,0.29771621642720486,-1.7173680142007381,-1.8853723189568035,-1.9082982423432184,1.306834350880881,1.1153772071239136,1.2576197428051317,0.0,0.0,7.0
0.8202995040242222,0.5450219484926776,0.6824017556294837,2.1504838094294567,1.3864931759993577,1.1741777248796703,1.359937407539567,0.6155795225483592,0.44836840333079103,0.5636897658271388,2.8364404107288363,2.5427286155566606,2.7758769835716692,0.0,0.0,7.0
0.3363432275217625,0.009305540075841931,0.18022353072403555,0.4310041390206618,0.6480111185057694,0.5077314073527046,0.6163825737609134,-1.6185143050164543,-1.7677047195137314,-1.8035529877597287,1.6656308340550927,1.5435826296537376,1.6941186995255113,1.0,1.0,7.0
0.23955197222127056,0.27716374428425977,0.16420658921673217,2.1504838094294567,1.080914393588218,0.8779793615343523,1.0412710502058584,-0.3334160856207651,-0.5125836587876301,-0.4628137290910604,2.87420846158928,2.5784124007674794,2.8138334145908326,1.0,1.0,7.0
0.7235082487237302,0.455735880423205,0.5759362032574097,-1.2884755313881333,0.1132482492862745,0.1374834531710569,0.16493856753815964,0.4969550715272187,0.4875909364784817,0.5008426130770449,-0.7704084464435025,-0.740179623838657,-0.7920275322296944,1.0,1.0,7.0
-0.3411955595816811,-0.5264108683409937,-0.46328064865761753,-1.2884755313881333,-0.24326033019338875,-0.3808636826832498,-0.33961649824021223,0.18062320213751054,0.016920538706193734,0.10281064565978405,-0.675988319292394,-0.7937053016548848,-0.7540711012105309,1.0,1.0,7.0
-0.14761304898069721,-0.34783873220204853,-0.27484604268934426,-1.2884755313881333,-0.2941901272619121,-0.43023007657413626,-0.3661720280180213,-0.3334160856207651,-0.49297239221378497,-0.4418646781743624,-0.6004522175715075,-0.6866539460224289,-0.6591800236626224,1.0,1.0,7.0
-0.8251518360841408,-0.9728412086883568,-0.9192923951008392,0.4310041390206618,0.8008005097113394,0.6311473920799204,0.7757157524277676,-1.5196605958321705,-1.6696483866445049,-1.698807733176239,1.9111231646479743,1.7041596631024216,1.8649226391117466,2.0,1.0,7.0
0.04596946162028667,0.009305540075841931,0.09919665015767809,0.4310041390206618,1.131844190656741,0.9767121493161249,1.094382109761476,1.5052629052069133,1.330875399153831,1.5063970570785463,2.4776439275546243,2.257258333870111,2.434269104399198,2.0,1.0,7.0
0.8202995040242222,0.5450219484926776,0.7144356386440904,2.1504838094294567,1.131844190656741,0.9520289523706817,1.1209376395392852,-0.4718112784787624,-0.6498625248045475,-0.609457085507946,2.798672359868393,2.507044830345842,2.756898768062088,2.0,1.0,7.0
0.8202995040242222,0.5450219484926776,0.6701535062415463,2.1504838094294567,1.3610282774650961,1.1494945279342272,1.3333818777617579,0.7935161990800701,0.6052585359215537,0.7312821731607224,2.798672359868393,2.507044830345842,2.756898768062088,2.0,1.0,7.0
