Min_hr,Max_hr,Mean_hr,Men_acc_sqrt,Min_acc_x,Max_acc_x,Mean_acc_x,Min_acc_y,Max_acc_y,Mean_acc_y,Min_acc_z,Max_acc_z,Mean_acc_z,Etiquetas binarias,Etiquetas multiclase,ID
67.0,68.0,67.5,1.0,0.09,0.09,0.09,0.22,0.22,0.22,-0.98,-0.97,-0.97,0.0,0.0,0.0
67.0,73.0,69.33,1.0,-0.25,-0.24,-0.25,-0.49,-0.48,-0.48,-0.85,-0.84,-0.84,0.0,0.0,0.0
66.0,67.0,66.2,1.0,0.09,0.11,0.1,-0.07,-0.05,-0.06,-1.01,-0.97,-1.0,0.0,0.0,0.0
68.0,71.0,69.5,1.0,-0.27,-0.26,-0.27,-0.53,-0.52,-0.52,-0.82,-0.81,-0.81,0.0,0.0,0.0
66.0,75.0,72.83,1.0,-0.27,-0.26,-0.27,-0.52,-0.51,-0.52,-0.82,-0.81,-0.82,0.0,0.0,0.0
68.0,68.0,68.0,1.0,0.68,0.7,0.69,-0.5,-0.47,-0.5,-0.55,-0.53,-0.54,0.0,0.0,0.0
70.0,71.0,70.4,1.0,-0.54,-0.5,-0.51,-0.35,-0.33,-0.34,-0.8,-0.77,-0.79,0.0,0.0,0.0
67.0,84.0,75.5,1.0,0.07,0.07,0.07,0.03,0.03,0.03,-1.0,-1.0,-1.0,0.0,0.0,0.0
63.0,68.0,66.17,1.0,0.38,0.4,0.38,-0.31,-0.27,-0.28,-0.89,-0.85,-0.88,0.0,0.0,0.0
68.0,71.0,69.17,1.0,-0.25,-0.24,-0.25,-0.49,-0.48,-0.48,-0.85,-0.83,-0.84,0.0,0.0,0.0
71.0,72.0,71.33,1.0,0.73,0.98,0.85,-0.3,0.67,0.21,-0.6,-0.16,-0.44,0.0,0.0,0.0
61.0,70.0,64.83,1.0,0.41,0.42,0.41,-0.36,-0.35,-0.36,-0.85,-0.84,-0.84,0.0,0.0,0.0
59.0,64.0,60.5,1.0,0.41,0.42,0.41,-0.36,-0.35,-0.36,-0.85,-0.84,-0.84,0.0,0.0,0.0
60.0,65.0,62.0,1.0,-0.27,-0.26,-0.27,-0.52,-0.51,-0.52,-0.82,-0.81,-0.82,0.0,0.0,0.0
62.0,68.0,65.83,1.0,0.32,0.33,0.32,-0.0,0.0,-0.0,-0.95,-0.95,-0.95,0.0,0.0,0.0
68.0,69.0,68.17,1.0,0.71,0.72,0.71,-0.43,-0.42,-0.42,-0.57,-0.56,-0.56,0.0,0.0,0.0
68.0,68.0,68.0,1.0,0.07,0.07,0.07,0.02,0.02,0.02,-1.0,-1.0,-1.0,0.0,0.0,0.0
59.0,77.0,65.33,1.0,0.38,0.39,0.38,-0.29,-0.28,-0.29,-0.88,-0.88,-0.88,0.0,0.0,0.0
66.0,72.0,68.5,1.0,0.39,0.9,0.69,-0.78,0.11,-0.48,-0.95,0.0,-0.48,1.0,1.0,0.0
63.0,67.0,65.5,1.0,0.07,0.07,0.07,0.03,0.03,0.03,-1.01,-0.99,-1.0,1.0,1.0,0.0
64.0,66.0,65.17,1.0,0.09,0.1,0.1,-0.07,-0.06,-0.06,-1.0,-0.99,-1.0,1.0,1.0,0.0
68.0,69.0,68.6,1.0,0.09,0.09,0.09,0.22,0.22,0.22,-0.98,-0.97,-0.97,1.0,1.0,0.0
61.0,70.0,64.8,1.0,-0.26,-0.26,-0.26,0.3,0.3,0.3,-0.92,-0.91,-0.92,1.0,1.0,0.0
68.0,84.0,76.0,1.0,-0.24,-0.23,-0.24,-0.49,-0.48,-0.49,-0.85,-0.84,-0.84,1.0,1.0,0.0
63.0,65.0,64.29,1.0,-0.27,-0.27,-0.27,0.33,0.34,0.34,-0.91,-0.9,-0.9,1.0,1.0,0.0
67.0,73.0,68.67,1.0,-0.24,-0.24,-0.24,-0.17,-0.16,-0.16,-0.97,-0.96,-0.96,1.0,1.0,0.0
65.0,71.0,68.0,1.0,0.06,0.07,0.07,0.03,0.03,0.03,-1.0,-1.0,-1.0,1.0,1.0,0.0
61.0,65.0,62.8,1.0,0.07,0.07,0.07,0.03,0.03,0.03,-1.0,-1.0,-1.0,1.0,1.0,0.0
67.0,71.0,68.83,1.0,0.32,0.33,0.32,-0.0,0.0,-0.0,-0.95,-0.95,-0.95,1.0,1.0,0.0
66.0,68.0,67.67,1.0,0.32,0.33,0.32,-0.0,0.0,-0.0,-0.95,-0.95,-0.95,1.0,1.0,0.0
60.0,66.0,62.83,1.0,0.32,0.32,0.32,-0.0,0.0,0.0,-0.95,-0.95,-0.95,1.0,1.0,0.0
66.0,68.0,67.33,1.0,-0.27,-0.27,-0.27,0.33,0.34,0.33,-0.91,-0.9,-0.9,1.0,1.0,0.0
67.0,69.0,67.67,1.0,0.32,0.33,0.32,-0.0,0.0,0.0,-0.95,-0.94,-0.95,1.0,2.0,0.0
67.0,68.0,67.5,1.0,0.68,0.69,0.69,-0.5,-0.49,-0.49,-0.54,-0.53,-0.54,1.0,2.0,0.0
85.0,96.0,93.33,1.0,0.32,0.32,0.32,-0.0,0.01,0.0,-0.95,-0.95,-0.95,1.0,2.0,0.0
64.0,70.0,66.83,1.0,0.08,0.09,0.08,0.03,0.03,0.03,-1.0,-0.99,-1.0,1.0,3.0,0.0
64.0,66.0,64.83,1.0,0.41,0.42,0.41,-0.36,-0.35,-0.36,-0.85,-0.84,-0.84,1.0,3.0,0.0
68.0,71.0,69.33,1.0,0.29,0.3,0.3,-0.17,-0.17,-0.17,-0.95,-0.94,-0.94,1.0,3.0,0.0
74.0,78.0,76.5,1.0,0.1,0.11,0.11,0.2,0.21,0.21,-0.98,-0.97,-0.97,0.0,5.0,0.0
69.0,70.0,69.5,1.0,-0.17,-0.17,-0.17,0.07,0.07,0.07,-0.99,-0.98,-0.98,0.0,5.0,0.0
65.0,66.0,65.67,1.0,0.09,0.09,0.09,0.22,0.22,0.22,-0.98,-0.97,-0.97,0.0,5.0,0.0
68.0,69.0,68.17,1.0,0.1,0.1,0.1,0.22,0.22,0.22,-0.98,-0.97,-0.97,0.0,5.0,0.0
67.0,68.0,67.6,1.0,0.09,0.09,0.09,0.22,0.23,0.22,-0.98,-0.97,-0.97,0.0,5.0,0.0
60.0,62.0,60.67,1.0,0.05,0.05,0.05,0.34,0.35,0.34,-0.94,-0.94,-0.94,0.0,5.0,0.0
63.0,64.0,63.33,1.0,0.05,0.05,0.05,0.34,0.35,0.35,-0.94,-0.94,-0.94,0.0,5.0,0.0
68.0,74.0,71.83,1.0,0.32,0.32,0.32,-0.0,0.0,0.0,-0.95,-0.95,-0.95,0.0,5.0,0.0
68.0,68.0,68.0,1.0,0.09,0.09,0.09,0.22,0.22,0.22,-0.98,-0.97,-0.97,0.0,5.0,0.0
59.0,60.0,59.17,1.0,0.05,0.05,0.05,0.34,0.35,0.35,-0.94,-0.93,-0.94,0.0,5.0,0.0
65.0,66.0,65.4,1.0,0.05,0.05,0.05,0.34,0.35,0.34,-0.94,-0.93,-0.94,0.0,5.0,0.0
67.0,68.0,67.57,1.0,0.1,0.11,0.1,0.2,0.21,0.2,-0.98,-0.97,-0.97,0.0,5.0,0.0
62.0,65.0,63.4,1.0,0.05,0.05,0.05,0.35,0.35,0.35,-0.94,-0.93,-0.94,0.0,5.0,0.0
77.0,79.0,78.0,1.0,-0.17,-0.16,-0.17,0.07,0.07,0.07,-0.99,-0.98,-0.98,0.0,5.0,0.0
71.0,73.0,71.67,1.0,0.1,0.11,0.1,0.2,0.21,0.2,-0.98,-0.97,-0.98,0.0,5.0,0.0
65.0,73.0,68.67,1.0,-0.02,0.44,0.06,-0.35,0.22,0.0,-1.08,-0.71,-0.99,0.0,5.0,0.0
50.0,52.0,51.14,0.99,-0.55,-0.08,-0.34,-1.06,-0.06,-0.17,-1.07,0.2,-0.82,0.0,0.0,10.0
50.0,50.0,50.0,0.99,-0.58,-0.57,-0.57,0.19,0.21,0.2,-0.79,-0.78,-0.79,0.0,0.0,10.0
52.0,54.0,53.4,0.99,-0.91,-0.44,-0.72,-0.7,0.54,-0.16,-1.02,0.01,-0.37,0.0,0.0,10.0
90.0,94.0,91.4,1.0,-0.92,-0.11,-0.63,-0.55,0.87,0.23,-0.98,0.03,-0.6,0.0,0.0,10.0
47.0,48.0,47.4,1.0,-1.01,-0.12,-0.43,0.01,0.56,0.28,-1.62,-0.09,-0.84,0.0,0.0,10.0
50.0,53.0,52.0,0.99,-0.47,-0.21,-0.42,-0.88,-0.16,-0.31,-0.91,-0.35,-0.82,0.0,0.0,10.0
44.0,46.0,44.67,0.99,-0.58,-0.57,-0.57,0.19,0.21,0.2,-0.79,-0.78,-0.79,0.0,0.0,10.0
48.0,49.0,48.4,0.99,-0.48,-0.47,-0.47,-0.11,-0.08,-0.1,-0.87,-0.85,-0.87,1.0,1.0,10.0
65.0,71.0,67.67,0.99,-0.58,-0.57,-0.57,0.2,0.21,0.2,-0.79,-0.78,-0.79,1.0,1.0,10.0
47.0,49.0,48.14,1.0,0.42,0.43,0.42,-0.17,-0.16,-0.16,-0.9,-0.88,-0.89,1.0,1.0,10.0
49.0,49.0,49.0,0.99,-0.58,-0.57,-0.57,0.19,0.21,0.2,-0.79,-0.78,-0.79,1.0,1.0,10.0
46.0,46.0,46.0,1.0,0.42,0.43,0.42,-0.17,-0.16,-0.16,-0.89,-0.88,-0.89,1.0,1.0,10.0
45.0,45.0,45.0,0.99,-0.45,-0.44,-0.45,0.06,0.08,0.07,-0.89,-0.88,-0.88,1.0,1.0,10.0
48.0,50.0,49.0,0.99,-0.58,-0.57,-0.57,0.2,0.21,0.2,-0.79,-0.78,-0.79,1.0,1.0,10.0
46.0,47.0,46.6,1.0,0.42,0.43,0.42,-0.17,-0.16,-0.16,-0.89,-0.88,-0.89,1.0,1.0,10.0
47.0,48.0,47.8,0.99,-0.43,-0.42,-0.43,0.01,0.03,0.02,-0.9,-0.89,-0.89,1.0,1.0,10.0
46.0,46.0,46.0,1.0,0.42,0.43,0.42,-0.17,-0.16,-0.16,-0.89,-0.88,-0.89,1.0,1.0,10.0
94.0,94.0,94.0,0.99,-0.44,-0.43,-0.44,0.09,0.1,0.1,-0.89,-0.88,-0.89,1.0,1.0,10.0
49.0,50.0,49.4,0.99,-0.58,-0.57,-0.57,0.19,0.21,0.2,-0.79,-0.78,-0.79,1.0,1.0,10.0
65.0,68.0,66.8,0.99,-0.58,-0.57,-0.57,0.19,0.21,0.2,-0.79,-0.78,-0.79,1.0,1.0,10.0
48.0,49.0,48.67,1.0,-0.86,1.22,0.02,-0.2,1.33,0.74,-0.81,0.22,-0.26,1.0,1.0,10.0
48.0,49.0,48.33,0.99,-0.58,-0.57,-0.58,0.19,0.21,0.2,-0.79,-0.78,-0.78,1.0,1.0,10.0
49.0,49.0,49.0,0.99,-0.47,-0.46,-0.47,0.0,0.02,0.01,-0.88,-0.87,-0.88,1.0,1.0,10.0
50.0,50.0,50.0,0.99,-0.56,-0.55,-0.56,0.11,0.13,0.12,-0.82,-0.81,-0.81,1.0,2.0,10.0
48.0,49.0,48.5,0.99,-0.47,-0.46,-0.46,0.0,0.02,0.01,-0.88,-0.87,-0.88,1.0,2.0,10.0
48.0,48.0,48.0,0.99,-0.47,-0.46,-0.46,0.0,0.02,0.01,-0.88,-0.87,-0.88,1.0,3.0,10.0
45.0,47.0,46.2,1.0,-0.07,-0.06,-0.06,-0.64,-0.63,-0.63,0.77,0.78,0.77,1.0,3.0,10.0
43.0,43.0,43.0,0.99,-0.45,-0.44,-0.45,0.06,0.08,0.07,-0.89,-0.88,-0.88,1.0,3.0,10.0
46.0,46.0,46.0,0.99,-0.43,-0.42,-0.43,0.01,0.03,0.02,-0.91,-0.89,-0.9,1.0,3.0,10.0
49.0,49.0,49.0,0.99,-0.58,-0.57,-0.58,0.19,0.21,0.2,-0.79,-0.78,-0.78,1.0,3.0,10.0
65.0,73.0,66.83,1.0,0.56,0.58,0.57,-0.0,0.0,0.0,-0.83,-0.81,-0.82,0.0,5.0,10.0
50.0,51.0,50.2,0.99,-0.47,-0.46,-0.47,0.0,0.02,0.01,-0.88,-0.87,-0.87,0.0,5.0,10.0
46.0,46.0,46.0,1.0,0.19,0.21,0.2,-0.23,-0.22,-0.22,-0.96,-0.94,-0.95,0.0,5.0,10.0
44.0,45.0,44.67,1.0,0.16,0.17,0.17,-0.24,-0.22,-0.23,-0.96,-0.95,-0.96,0.0,5.0,10.0
48.0,49.0,48.6,0.99,-0.76,-0.37,-0.48,-0.62,0.95,0.15,-0.97,-0.17,-0.76,0.0,5.0,10.0
47.0,50.0,49.33,1.0,0.53,0.57,0.57,-0.04,0.03,0.0,-0.83,-0.81,-0.82,0.0,5.0,10.0
79.0,88.0,82.0,0.99,-0.35,-0.34,-0.34,-0.16,-0.14,-0.15,-0.92,-0.92,-0.92,0.0,5.0,10.0
88.0,90.0,89.0,0.99,-0.35,-0.35,-0.35,-0.09,-0.08,-0.09,-0.93,-0.92,-0.93,0.0,5.0,10.0
60.0,79.0,65.0,0.99,-0.35,-0.34,-0.34,-0.16,-0.14,-0.15,-0.92,-0.91,-0.92,0.0,5.0,10.0
84.0,87.0,85.33,0.99,-0.4,-0.39,-0.39,-0.09,-0.08,-0.09,-0.92,-0.91,-0.91,0.0,0.0,22.0
90.0,92.0,91.2,0.99,-0.41,-0.39,-0.4,-0.08,-0.07,-0.08,-0.92,-0.9,-0.91,0.0,0.0,22.0
80.0,81.0,80.83,1.0,-0.75,-0.73,-0.74,-0.35,-0.34,-0.34,-0.58,-0.56,-0.57,0.0,0.0,22.0
81.0,88.0,83.83,1.0,-0.75,-0.73,-0.74,-0.35,-0.34,-0.34,-0.58,-0.57,-0.57,0.0,0.0,22.0
80.0,81.0,80.33,1.0,-0.77,-0.75,-0.76,-0.28,-0.27,-0.27,-0.59,-0.58,-0.58,1.0,1.0,22.0
80.0,83.0,81.5,1.0,-0.77,-0.75,-0.76,-0.28,-0.27,-0.27,-0.59,-0.58,-0.59,1.0,1.0,22.0
87.0,90.0,88.43,1.0,-0.66,-0.64,-0.65,-0.59,-0.58,-0.59,-0.49,-0.47,-0.48,1.0,1.0,22.0
85.0,87.0,85.86,1.0,-0.61,-0.59,-0.6,-0.77,-0.77,-0.77,-0.2,-0.18,-0.19,1.0,1.0,22.0
76.0,79.0,77.86,0.99,-0.56,-0.55,-0.56,-0.61,-0.61,-0.61,-0.55,-0.55,-0.55,1.0,1.0,22.0
85.0,86.0,85.5,1.0,-0.61,-0.59,-0.6,-0.77,-0.77,-0.77,-0.2,-0.19,-0.19,1.0,1.0,22.0
79.0,81.0,80.17,0.99,-0.5,-0.49,-0.49,-0.73,-0.71,-0.72,-0.48,-0.47,-0.48,1.0,2.0,22.0
74.0,76.0,75.57,1.0,-0.84,-0.43,-0.55,-1.01,-0.25,-0.44,-0.79,-0.3,-0.7,1.0,2.0,22.0
78.0,81.0,79.67,0.99,-0.5,-0.49,-0.49,-0.73,-0.72,-0.72,-0.48,-0.47,-0.47,1.0,2.0,22.0
84.0,86.0,84.83,1.0,-0.66,-0.64,-0.65,-0.58,-0.57,-0.57,-0.5,-0.49,-0.49,1.0,2.0,22.0
76.0,81.0,78.17,1.0,-0.63,-0.61,-0.62,-0.68,-0.67,-0.68,-0.39,-0.37,-0.38,1.0,2.0,22.0
85.0,87.0,86.5,1.0,-0.66,-0.64,-0.65,-0.59,-0.57,-0.57,-0.5,-0.49,-0.49,1.0,2.0,22.0
73.0,78.0,75.0,0.99,-0.51,-0.5,-0.51,-0.69,-0.68,-0.68,-0.52,-0.51,-0.52,1.0,2.0,22.0
86.0,87.0,86.67,1.0,-0.61,-0.6,-0.6,-0.77,-0.76,-0.77,-0.19,-0.18,-0.19,1.0,2.0,22.0
86.0,88.0,86.8,1.0,-0.66,-0.64,-0.65,-0.57,-0.56,-0.57,-0.5,-0.48,-0.49,1.0,2.0,22.0
78.0,79.0,78.5,0.99,-0.52,-0.51,-0.52,-0.55,-0.55,-0.55,-0.65,-0.64,-0.65,1.0,3.0,22.0
77.0,79.0,78.29,0.99,-0.5,-0.49,-0.49,-0.73,-0.72,-0.72,-0.48,-0.47,-0.47,1.0,3.0,22.0
78.0,85.0,81.6,1.0,-0.64,-0.62,-0.63,-0.68,-0.67,-0.67,-0.39,-0.37,-0.38,1.0,3.0,22.0
86.0,88.0,87.0,1.0,-0.66,-0.64,-0.64,-0.59,-0.58,-0.59,-0.49,-0.47,-0.48,1.0,3.0,22.0
87.0,89.0,87.83,1.0,-0.65,-0.64,-0.64,-0.59,-0.58,-0.59,-0.49,-0.47,-0.48,1.0,3.0,22.0
79.0,88.0,82.57,1.0,-0.64,-0.62,-0.63,-0.68,-0.67,-0.67,-0.39,-0.37,-0.38,1.0,3.0,22.0
86.0,89.0,87.17,1.0,-0.65,-0.63,-0.64,-0.59,-0.58,-0.59,-0.49,-0.47,-0.48,1.0,3.0,22.0
78.0,81.0,79.57,1.0,-0.63,-0.62,-0.62,-0.68,-0.67,-0.68,-0.39,-0.37,-0.38,1.0,3.0,22.0
80.0,83.0,81.5,0.99,-0.54,-0.53,-0.53,-0.7,-0.7,-0.7,-0.47,-0.46,-0.46,0.0,5.0,22.0
80.0,82.0,80.67,0.99,-0.53,-0.53,-0.53,-0.59,-0.58,-0.58,-0.61,-0.6,-0.61,0.0,5.0,22.0
80.0,96.0,85.29,0.99,-0.54,-0.53,-0.53,-0.75,-0.73,-0.74,-0.41,-0.39,-0.4,0.0,5.0,22.0
80.0,83.0,81.83,1.0,-0.6,-0.59,-0.6,-0.77,-0.77,-0.77,-0.2,-0.19,-0.19,0.0,5.0,22.0
80.0,82.0,80.67,0.99,-0.49,-0.48,-0.49,-0.73,-0.72,-0.72,-0.48,-0.47,-0.48,0.0,5.0,22.0
76.0,81.0,79.17,1.0,0.39,0.4,0.4,0.46,0.47,0.46,-0.79,-0.78,-0.79,0.0,0.0,26.0
58.0,59.0,58.33,0.99,-0.04,-0.03,-0.03,0.52,0.53,0.52,-0.85,-0.84,-0.84,0.0,0.0,26.0
59.0,61.0,59.83,1.0,0.39,0.41,0.4,0.45,0.47,0.46,-0.8,-0.78,-0.79,0.0,0.0,26.0
59.0,59.0,59.0,0.99,-0.04,-0.03,-0.03,0.52,0.53,0.52,-0.85,-0.84,-0.84,0.0,0.0,26.0
56.0,59.0,57.67,0.99,-0.03,-0.0,-0.02,0.48,0.54,0.5,-0.87,-0.84,-0.86,0.0,0.0,26.0
64.0,65.0,64.5,0.99,-0.15,-0.14,-0.14,0.32,0.33,0.33,-0.93,-0.92,-0.92,1.0,1.0,26.0
61.0,62.0,61.5,0.99,0.01,0.05,0.05,0.07,0.13,0.11,-1.01,-0.98,-0.98,1.0,1.0,26.0
61.0,62.0,61.8,0.99,-0.21,-0.2,-0.2,0.18,0.18,0.18,-0.95,-0.94,-0.95,1.0,1.0,26.0
61.0,63.0,61.83,0.99,-0.15,-0.14,-0.14,0.26,0.27,0.27,-0.94,-0.94,-0.94,1.0,1.0,26.0
61.0,64.0,62.67,0.99,-0.14,-0.14,-0.14,0.33,0.33,0.33,-0.92,-0.92,-0.92,1.0,1.0,26.0
60.0,64.0,62.6,0.99,-0.02,-0.02,-0.02,-0.05,-0.05,-0.05,-0.99,-0.98,-0.99,1.0,1.0,26.0
71.0,73.0,72.0,0.99,0.05,0.05,0.05,0.13,0.14,0.13,-0.98,-0.98,-0.98,1.0,2.0,26.0
63.0,64.0,63.33,0.99,-0.02,-0.02,-0.02,-0.05,-0.05,-0.05,-0.99,-0.98,-0.99,1.0,2.0,26.0
59.0,59.0,59.0,0.99,-0.05,-0.04,-0.05,0.45,0.46,0.45,-0.88,-0.88,-0.88,1.0,2.0,26.0
81.0,94.0,86.14,0.99,0.04,0.06,0.05,0.14,0.16,0.14,-0.98,-0.98,-0.98,1.0,2.0,26.0
65.0,66.0,65.2,0.99,-0.01,-0.0,-0.0,0.36,0.37,0.37,-0.93,-0.92,-0.92,1.0,3.0,26.0
61.0,66.0,63.14,0.99,-0.04,-0.04,-0.04,0.46,0.47,0.47,-0.88,-0.87,-0.87,1.0,3.0,26.0
64.0,65.0,64.14,0.99,0.06,0.07,0.06,-0.13,-0.12,-0.13,-0.99,-0.97,-0.98,1.0,3.0,26.0
63.0,64.0,63.4,0.99,0.08,0.11,0.08,0.29,0.37,0.32,-0.94,-0.92,-0.93,1.0,3.0,26.0
62.0,64.0,62.83,0.99,0.08,0.08,0.08,0.31,0.32,0.32,-0.94,-0.93,-0.94,1.0,3.0,26.0
63.0,67.0,64.83,0.99,-0.0,0.0,0.0,0.3,0.31,0.31,-0.95,-0.94,-0.94,0.0,5.0,26.0
61.0,67.0,63.17,0.99,-0.01,-0.0,-0.0,0.3,0.31,0.3,-0.95,-0.94,-0.95,0.0,5.0,26.0
58.0,59.0,58.5,1.0,-0.69,-0.67,-0.68,-0.21,-0.18,-0.19,-0.72,-0.7,-0.71,0.0,0.0,15.0
68.0,70.0,68.4,1.0,0.04,0.05,0.05,-0.79,-0.77,-0.78,0.62,0.64,0.63,0.0,0.0,15.0
76.0,88.0,78.4,1.01,-0.97,-0.48,-0.69,-0.66,1.15,0.33,-0.88,-0.07,-0.49,0.0,0.0,15.0
73.0,86.0,76.17,1.0,-0.23,-0.22,-0.23,0.59,0.6,0.6,-0.78,-0.77,-0.77,0.0,0.0,15.0
58.0,59.0,58.75,1.0,-0.94,-0.57,-0.69,-0.52,-0.04,-0.19,-0.72,-0.26,-0.69,0.0,0.0,15.0
56.0,57.0,56.67,1.0,-0.68,-0.66,-0.67,-0.21,-0.18,-0.2,-0.72,-0.71,-0.72,0.0,0.0,15.0
59.0,61.0,60.2,1.0,-0.24,-0.23,-0.23,-0.56,-0.54,-0.55,-0.81,-0.8,-0.8,0.0,0.0,15.0
73.0,77.0,74.0,1.0,-0.31,-0.29,-0.3,0.57,0.59,0.58,-0.77,-0.75,-0.76,0.0,0.0,15.0
76.0,86.0,82.67,1.0,-0.24,-0.23,-0.24,-0.56,-0.54,-0.55,-0.8,-0.79,-0.8,0.0,0.0,15.0
57.0,58.0,57.17,1.0,-0.61,-0.58,-0.59,0.16,0.18,0.17,-0.8,-0.77,-0.79,1.0,1.0,15.0
66.0,73.0,67.83,1.0,0.15,0.16,0.15,-0.82,-0.81,-0.82,0.54,0.56,0.55,1.0,1.0,15.0
60.0,68.0,63.17,1.0,0.04,0.05,0.05,-0.78,-0.77,-0.77,0.63,0.64,0.63,1.0,1.0,15.0
53.0,59.0,56.0,1.0,-0.61,-0.58,-0.59,0.17,0.18,0.17,-0.8,-0.78,-0.79,1.0,1.0,15.0
63.0,65.0,64.17,1.0,-0.13,-0.13,-0.13,-0.41,-0.4,-0.41,-0.91,-0.9,-0.9,1.0,1.0,15.0
59.0,61.0,59.83,1.0,-0.28,0.25,0.06,-1.06,0.11,-0.8,-0.06,1.01,0.53,1.0,1.0,15.0
67.0,68.0,67.5,1.0,-0.02,-0.01,-0.02,0.06,0.06,0.06,-1.0,-1.0,-1.0,1.0,2.0,15.0
61.0,81.0,69.4,1.0,0.0,0.02,0.01,0.96,0.98,0.97,0.23,0.27,0.25,1.0,2.0,15.0
65.0,67.0,66.33,1.0,-0.07,-0.06,-0.07,-0.65,-0.64,-0.64,-0.77,-0.76,-0.76,1.0,2.0,15.0
58.0,79.0,63.83,1.0,-0.67,0.02,-0.12,-0.93,0.98,0.59,0.14,1.01,0.58,1.0,2.0,15.0
61.0,64.0,62.57,1.01,-0.96,0.22,-0.22,-1.78,0.8,-0.65,-1.14,0.23,-0.59,1.0,2.0,15.0
54.0,55.0,54.33,1.0,0.02,0.11,0.08,-0.47,-0.44,-0.45,-0.91,-0.87,-0.89,1.0,2.0,15.0
51.0,52.0,51.67,1.0,-0.08,-0.06,-0.07,-0.59,-0.58,-0.58,-0.82,-0.8,-0.81,1.0,2.0,15.0
68.0,73.0,71.0,1.0,-0.07,-0.06,-0.06,-0.51,-0.5,-0.5,-0.87,-0.86,-0.86,1.0,2.0,15.0
50.0,62.0,53.2,1.0,-0.19,-0.18,-0.18,0.33,0.34,0.34,-0.93,-0.92,-0.92,1.0,3.0,15.0
65.0,68.0,66.2,1.0,-0.12,-0.11,-0.11,-0.56,-0.55,-0.56,-0.83,-0.82,-0.82,1.0,3.0,15.0
64.0,65.0,64.33,1.0,-0.12,-0.11,-0.11,-0.56,-0.55,-0.56,-0.83,-0.82,-0.82,1.0,3.0,15.0
52.0,55.0,53.57,1.0,-0.18,-0.17,-0.18,0.34,0.35,0.34,-0.93,-0.92,-0.92,1.0,3.0,15.0
66.0,75.0,69.5,1.0,-0.3,-0.29,-0.3,-0.2,-0.17,-0.18,-0.95,-0.93,-0.94,1.0,3.0,15.0
64.0,65.0,64.83,1.0,-0.07,-0.06,-0.07,-0.51,-0.49,-0.5,-0.88,-0.86,-0.86,1.0,3.0,15.0
52.0,60.0,55.17,1.0,-0.19,-0.18,-0.19,0.32,0.34,0.33,-0.93,-0.92,-0.93,1.0,3.0,15.0
51.0,59.0,54.0,1.0,-0.05,-0.03,-0.04,-0.58,-0.57,-0.57,-0.82,-0.81,-0.82,0.0,5.0,15.0
56.0,58.0,57.0,1.0,0.05,0.11,0.08,-0.47,-0.45,-0.45,-0.91,-0.87,-0.89,0.0,5.0,15.0
53.0,60.0,55.83,0.99,-0.35,-0.33,-0.34,0.28,0.29,0.28,-0.9,-0.88,-0.89,0.0,0.0,25.0
54.0,68.0,61.2,0.99,-0.33,-0.32,-0.33,0.29,0.31,0.3,-0.89,-0.88,-0.89,0.0,0.0,25.0
60.0,62.0,61.0,0.99,-0.17,-0.16,-0.17,0.22,0.23,0.22,-0.96,-0.95,-0.95,0.0,0.0,25.0
53.0,54.0,53.67,0.99,-0.49,-0.48,-0.48,-0.28,-0.25,-0.26,-0.83,-0.82,-0.83,0.0,0.0,25.0
65.0,65.0,65.0,1.0,-0.39,-0.38,-0.39,-0.73,-0.72,-0.73,0.56,0.56,0.56,0.0,0.0,25.0
61.0,63.0,62.0,0.99,-0.33,-0.32,-0.33,0.29,0.3,0.3,-0.89,-0.88,-0.89,0.0,0.0,25.0
59.0,60.0,59.17,0.99,-0.4,-0.34,-0.37,0.17,0.27,0.24,-0.9,-0.85,-0.89,0.0,0.0,25.0
51.0,52.0,51.33,0.99,-0.34,-0.33,-0.33,0.25,0.27,0.26,-0.9,-0.89,-0.9,0.0,0.0,25.0
55.0,56.0,55.4,0.99,-0.4,-0.39,-0.39,0.11,0.13,0.12,-0.91,-0.9,-0.9,0.0,0.0,25.0
60.0,62.0,61.17,1.0,-0.65,-0.64,-0.65,-0.56,-0.55,-0.56,0.5,0.51,0.51,0.0,0.0,25.0
50.0,51.0,50.6,1.0,-0.1,-0.09,-0.09,0.17,0.18,0.18,-0.98,-0.97,-0.98,1.0,1.0,25.0
61.0,63.0,62.0,0.99,-0.33,-0.32,-0.33,0.29,0.31,0.3,-0.89,-0.88,-0.89,1.0,1.0,25.0
60.0,61.0,60.67,0.99,-0.55,-0.54,-0.54,-0.68,-0.67,-0.68,0.48,0.49,0.49,1.0,1.0,25.0
47.0,53.0,49.17,1.0,-0.1,-0.09,-0.09,0.16,0.17,0.16,-0.98,-0.97,-0.98,1.0,1.0,25.0
56.0,57.0,56.57,0.99,-0.42,-0.41,-0.41,-0.11,-0.1,-0.11,-0.9,-0.89,-0.89,1.0,1.0,25.0
62.0,64.0,63.0,1.0,-0.2,-0.2,-0.2,-0.97,-0.96,-0.96,0.13,0.14,0.14,1.0,1.0,25.0
49.0,50.0,49.67,1.0,-0.13,-0.13,-0.13,-0.97,-0.97,-0.97,0.18,0.19,0.18,1.0,1.0,25.0
47.0,48.0,47.6,1.0,-0.62,-0.61,-0.62,-0.19,-0.18,-0.19,0.76,0.77,0.76,1.0,1.0,25.0
59.0,59.0,59.0,1.0,-0.22,-0.21,-0.22,-0.93,-0.92,-0.93,0.29,0.3,0.3,1.0,1.0,25.0
52.0,55.0,53.2,0.99,-0.42,-0.41,-0.42,-0.09,-0.08,-0.08,-0.9,-0.89,-0.9,1.0,2.0,25.0
48.0,63.0,56.17,0.99,-0.58,-0.57,-0.58,-0.67,-0.67,-0.67,0.45,0.46,0.45,1.0,2.0,25.0
49.0,50.0,49.6,0.99,-0.1,-0.09,-0.09,0.17,0.18,0.18,-0.98,-0.97,-0.97,1.0,2.0,25.0
50.0,50.0,50.0,0.99,-0.15,-0.15,-0.15,-0.0,0.01,0.0,-0.99,-0.98,-0.98,1.0,2.0,25.0
51.0,52.0,51.17,0.99,-0.34,-0.33,-0.33,0.27,0.29,0.28,-0.9,-0.89,-0.89,1.0,2.0,25.0
50.0,51.0,50.25,1.0,-0.49,-0.49,-0.49,-0.71,-0.7,-0.71,0.5,0.51,0.5,1.0,2.0,25.0
60.0,62.0,60.43,1.0,-0.55,-0.54,-0.54,-0.68,-0.67,-0.68,0.49,0.49,0.49,1.0,2.0,25.0
52.0,55.0,53.67,1.0,-0.49,-0.49,-0.49,-0.71,-0.71,-0.71,0.49,0.51,0.5,1.0,3.0,25.0
50.0,50.0,50.0,0.99,-0.34,-0.33,-0.33,0.28,0.29,0.29,-0.9,-0.89,-0.89,1.0,3.0,25.0
50.0,50.0,50.0,0.99,-0.34,-0.33,-0.33,0.28,0.29,0.29,-0.89,-0.88,-0.89,1.0,3.0,25.0
62.0,63.0,62.2,1.0,-0.49,-0.49,-0.49,-0.71,-0.71,-0.71,0.49,0.5,0.5,1.0,3.0,25.0
59.0,64.0,60.83,1.0,-0.4,-0.39,-0.39,-0.77,-0.71,-0.76,0.5,0.59,0.51,1.0,3.0,25.0
48.0,56.0,49.67,1.0,-0.49,-0.49,-0.49,-0.71,-0.71,-0.71,0.5,0.5,0.5,1.0,3.0,25.0
53.0,57.0,55.6,0.99,-0.33,-0.32,-0.33,0.29,0.31,0.3,-0.89,-0.87,-0.89,1.0,3.0,25.0
50.0,52.0,50.83,1.0,-0.49,-0.49,-0.49,-0.71,-0.71,-0.71,0.49,0.5,0.5,1.0,3.0,25.0
50.0,53.0,50.83,0.99,-0.34,-0.33,-0.33,0.28,0.29,0.29,-0.89,-0.88,-0.89,1.0,3.0,25.0
49.0,50.0,49.57,0.99,-0.34,-0.33,-0.33,0.28,0.29,0.29,-0.89,-0.89,-0.89,1.0,3.0,25.0
49.0,51.0,50.33,0.99,-0.34,-0.33,-0.34,0.28,0.29,0.29,-0.89,-0.88,-0.89,1.0,3.0,25.0
59.0,60.0,59.57,1.0,-0.21,-0.19,-0.21,-0.94,-0.92,-0.94,0.26,0.28,0.26,0.0,5.0,25.0
51.0,57.0,53.17,1.0,-0.13,-0.12,-0.13,-0.98,-0.97,-0.97,0.18,0.22,0.18,0.0,5.0,25.0
52.0,61.0,57.4,1.0,-0.25,-0.24,-0.24,0.07,0.09,0.08,-0.97,-0.96,-0.96,0.0,5.0,25.0
62.0,62.0,62.0,0.99,-0.43,-0.11,-0.27,-0.98,0.07,-0.14,-0.99,0.17,-0.82,0.0,5.0,25.0
59.0,63.0,60.67,1.0,-0.21,-0.19,-0.21,-0.96,-0.88,-0.94,0.23,0.31,0.27,0.0,5.0,25.0
50.0,61.0,56.33,1.0,-0.12,-0.12,-0.12,-0.98,-0.97,-0.98,0.15,0.17,0.16,0.0,5.0,25.0
59.0,63.0,60.2,1.0,-0.22,-0.21,-0.21,-0.94,-0.93,-0.93,0.29,0.33,0.29,0.0,5.0,25.0
53.0,58.0,54.8,1.0,-0.13,-0.13,-0.13,-0.97,-0.97,-0.97,0.18,0.19,0.18,0.0,5.0,25.0
55.0,56.0,55.33,0.99,-0.44,-0.43,-0.43,-0.4,-0.38,-0.39,-0.82,-0.79,-0.8,0.0,5.0,25.0
49.0,50.0,49.67,1.0,-0.13,-0.13,-0.13,-0.97,-0.97,-0.97,0.18,0.19,0.19,0.0,5.0,25.0
81.0,84.0,83.0,1.01,-0.24,0.97,0.41,-1.22,0.8,-0.55,-1.13,-0.14,-0.66,0.0,0.0,18.0
78.0,86.0,80.0,1.07,-1.04,1.27,0.06,-1.78,2.25,0.16,-1.22,1.43,-0.35,0.0,0.0,18.0
82.0,84.0,82.83,0.99,-0.15,0.97,0.19,-0.09,1.28,0.76,-0.86,0.9,-0.15,0.0,0.0,18.0
69.0,74.0,71.17,1.0,0.35,0.35,0.35,-0.51,-0.5,-0.51,0.78,0.79,0.79,1.0,1.0,18.0
75.0,77.0,76.0,1.0,0.35,0.35,0.35,-0.51,-0.51,-0.51,0.78,0.79,0.79,1.0,1.0,18.0
86.0,87.0,86.17,1.0,0.34,0.34,0.34,-0.92,-0.92,-0.92,0.19,0.2,0.2,1.0,2.0,18.0
71.0,77.0,74.0,1.0,0.35,0.35,0.35,-0.51,-0.5,-0.5,0.79,0.79,0.79,1.0,3.0,18.0
83.0,86.0,84.8,1.0,0.26,0.27,0.27,-0.74,-0.73,-0.74,-0.63,-0.62,-0.62,1.0,3.0,18.0
82.0,85.0,84.17,1.0,0.25,0.26,0.26,-0.81,-0.8,-0.8,-0.55,-0.54,-0.55,1.0,3.0,18.0
84.0,86.0,85.4,1.0,0.26,0.26,0.26,-0.74,-0.73,-0.73,-0.64,-0.63,-0.63,1.0,3.0,18.0
81.0,84.0,83.17,1.0,0.26,0.26,0.26,-0.81,-0.8,-0.81,-0.54,-0.53,-0.54,1.0,3.0,18.0
78.0,86.0,81.6,1.0,0.24,0.26,0.25,-0.84,-0.82,-0.83,0.49,0.52,0.5,0.0,5.0,18.0
79.0,86.0,80.57,1.01,-0.56,1.49,0.29,-1.29,0.48,-0.78,-1.02,0.83,0.11,0.0,5.0,18.0
82.0,87.0,84.0,1.0,0.25,0.26,0.26,-0.83,-0.83,-0.83,0.49,0.5,0.5,0.0,5.0,18.0
75.0,79.0,77.33,1.0,0.37,0.37,0.37,-0.91,-0.91,-0.91,0.2,0.21,0.2,0.0,5.0,18.0
63.0,79.0,67.67,1.0,0.34,0.35,0.35,-0.51,-0.51,-0.51,0.78,0.79,0.79,0.0,5.0,18.0
92.0,96.0,94.0,1.0,0.4,0.41,0.4,-0.26,-0.25,-0.26,-0.89,-0.88,-0.88,0.0,5.0,18.0
67.0,67.0,67.0,1.0,0.34,0.37,0.35,-0.52,-0.48,-0.51,0.77,0.82,0.79,0.0,5.0,18.0
79.0,83.0,80.33,1.0,0.36,0.36,0.36,-0.9,-0.89,-0.9,0.26,0.27,0.26,0.0,5.0,18.0
62.0,65.0,64.0,0.99,-0.31,-0.29,-0.3,-0.14,-0.12,-0.13,-0.95,-0.93,-0.94,0.0,0.0,17.0
66.0,67.0,66.5,0.99,-0.27,-0.26,-0.27,-0.55,-0.53,-0.54,-0.8,-0.78,-0.79,0.0,0.0,17.0
60.0,62.0,60.83,0.99,-0.26,-0.25,-0.25,0.27,0.28,0.27,-0.93,-0.92,-0.92,0.0,0.0,17.0
65.0,67.0,66.0,0.99,-0.27,-0.27,-0.27,-0.54,-0.53,-0.54,-0.8,-0.78,-0.79,0.0,0.0,17.0
66.0,68.0,67.0,0.99,-0.29,-0.26,-0.27,-0.54,-0.5,-0.52,-0.81,-0.79,-0.8,0.0,0.0,17.0
66.0,69.0,67.57,0.99,-0.27,-0.26,-0.27,-0.55,-0.53,-0.54,-0.79,-0.78,-0.79,1.0,1.0,17.0
56.0,58.0,57.0,0.99,-0.3,-0.28,-0.29,-0.14,-0.13,-0.14,-0.95,-0.94,-0.94,1.0,1.0,17.0
57.0,58.0,57.6,0.99,-0.28,-0.26,-0.27,-0.45,-0.43,-0.44,-0.86,-0.84,-0.85,1.0,1.0,17.0
58.0,61.0,59.17,0.99,-0.25,-0.23,-0.24,-0.62,-0.59,-0.6,-0.76,-0.74,-0.75,1.0,2.0,17.0
64.0,65.0,64.4,1.01,-0.9,0.48,-0.22,-0.78,0.32,-0.19,-1.29,-0.36,-0.93,1.0,2.0,17.0
54.0,57.0,54.83,0.99,-0.41,-0.4,-0.41,-0.55,-0.53,-0.54,-0.73,-0.72,-0.73,1.0,2.0,17.0
59.0,61.0,60.33,0.99,-0.35,-0.33,-0.34,-0.3,-0.29,-0.3,-0.89,-0.88,-0.89,1.0,2.0,17.0
65.0,66.0,65.8,1.0,-0.45,0.13,-0.3,-0.59,0.26,0.16,-1.1,-0.69,-0.92,1.0,2.0,17.0
68.0,69.0,68.2,0.99,-0.27,-0.26,-0.27,-0.55,-0.54,-0.55,-0.79,-0.78,-0.78,1.0,2.0,17.0
67.0,74.0,70.43,1.0,0.49,0.5,0.5,0.11,0.12,0.12,-0.86,-0.85,-0.86,1.0,2.0,17.0
65.0,67.0,65.5,0.99,-0.3,-0.29,-0.3,0.21,0.22,0.22,-0.93,-0.92,-0.92,1.0,2.0,17.0
52.0,62.0,55.67,0.99,-0.28,-0.26,-0.27,-0.45,-0.43,-0.44,-0.86,-0.84,-0.85,1.0,2.0,17.0
63.0,64.0,63.29,0.99,-0.39,-0.37,-0.38,0.35,0.36,0.35,-0.85,-0.84,-0.85,1.0,3.0,17.0
80.0,84.0,82.0,0.99,-0.24,-0.23,-0.23,-0.21,-0.2,-0.21,-0.95,-0.93,-0.94,1.0,3.0,17.0
69.0,77.0,73.6,0.99,-0.24,-0.23,-0.23,-0.21,-0.2,-0.21,-0.95,-0.94,-0.94,1.0,3.0,17.0
69.0,75.0,70.33,0.99,-0.23,-0.21,-0.22,-0.26,-0.24,-0.25,-0.94,-0.93,-0.94,1.0,3.0,17.0
68.0,74.0,71.14,1.0,0.49,0.51,0.5,0.12,0.13,0.12,-0.86,-0.85,-0.85,1.0,3.0,17.0
65.0,67.0,65.33,1.0,-0.34,0.11,-0.19,-0.19,0.54,0.1,-1.44,-0.71,-0.97,1.0,3.0,17.0
70.0,73.0,71.43,1.0,0.49,0.51,0.5,0.12,0.13,0.12,-0.86,-0.85,-0.86,1.0,3.0,17.0
65.0,66.0,65.4,0.99,-0.28,-0.26,-0.27,-0.45,-0.44,-0.44,-0.85,-0.83,-0.84,1.0,3.0,17.0
73.0,81.0,78.83,0.99,-0.39,-0.05,-0.21,-1.21,0.11,-0.27,-1.0,-0.53,-0.93,1.0,3.0,17.0
61.0,69.0,63.67,1.0,0.49,0.5,0.49,0.11,0.12,0.12,-0.86,-0.85,-0.86,0.0,5.0,17.0
68.0,69.0,68.83,1.0,-0.4,-0.29,-0.31,-0.22,-0.16,-0.2,-0.94,-0.89,-0.93,0.0,0.0,21.0
70.0,72.0,70.5,1.0,-0.3,-0.29,-0.3,-0.21,-0.19,-0.2,-0.94,-0.92,-0.93,0.0,0.0,21.0
64.0,65.0,64.8,1.0,-0.4,-0.39,-0.39,0.15,0.16,0.16,-0.91,-0.9,-0.9,1.0,1.0,21.0
63.0,66.0,64.0,1.0,-0.31,-0.3,-0.3,-0.13,-0.1,-0.12,-0.96,-0.93,-0.94,1.0,1.0,21.0
60.0,61.0,60.33,1.0,-0.28,-0.26,-0.27,0.05,0.16,0.13,-0.99,-0.92,-0.95,1.0,1.0,21.0
61.0,66.0,63.33,1.0,-0.33,-0.31,-0.32,-0.16,-0.14,-0.15,-0.95,-0.92,-0.93,1.0,1.0,21.0
68.0,70.0,68.33,1.0,-0.49,-0.13,-0.26,-0.84,0.71,0.05,-1.05,-0.46,-0.92,1.0,1.0,21.0
65.0,66.0,65.17,1.0,-0.31,-0.27,-0.29,-0.3,-0.2,-0.24,-0.95,-0.9,-0.92,1.0,1.0,21.0
67.0,70.0,67.6,1.0,-0.91,0.58,-0.31,-1.56,0.77,-0.4,-1.16,-0.09,-0.75,1.0,1.0,21.0
81.0,86.0,83.17,1.0,-0.3,-0.28,-0.29,0.18,0.21,0.2,-0.94,-0.93,-0.93,1.0,1.0,21.0
62.0,63.0,62.2,1.0,-0.3,-0.26,-0.28,0.13,0.26,0.14,-1.03,-0.93,-0.95,1.0,1.0,21.0
63.0,67.0,65.4,1.0,-0.7,-0.69,-0.69,-0.29,-0.28,-0.28,-0.66,-0.65,-0.66,1.0,1.0,21.0
62.0,67.0,64.0,1.0,-0.28,-0.27,-0.28,0.17,0.18,0.18,-0.95,-0.94,-0.94,1.0,1.0,21.0
66.0,71.0,67.8,1.0,-0.39,-0.37,-0.38,-0.48,-0.37,-0.46,-0.82,-0.78,-0.8,1.0,2.0,21.0
67.0,68.0,67.5,1.0,-0.32,-0.31,-0.32,0.08,0.09,0.08,-0.96,-0.93,-0.94,1.0,2.0,21.0
66.0,66.0,66.0,1.0,-0.43,-0.42,-0.42,0.16,0.18,0.17,-0.89,-0.88,-0.89,1.0,2.0,21.0
61.0,64.0,62.5,1.0,-0.33,-0.32,-0.33,-0.23,-0.21,-0.22,-0.93,-0.91,-0.92,1.0,2.0,21.0
69.0,70.0,69.6,1.0,-0.31,-0.3,-0.3,-0.54,-0.52,-0.53,-0.8,-0.77,-0.79,1.0,2.0,21.0
68.0,86.0,72.33,1.0,-0.44,-0.43,-0.43,-0.16,-0.14,-0.15,-0.89,-0.88,-0.89,1.0,2.0,21.0
72.0,77.0,75.2,1.0,-0.32,-0.3,-0.31,-0.61,-0.59,-0.6,-0.74,-0.72,-0.73,1.0,2.0,21.0
68.0,69.0,68.33,1.0,-0.31,-0.3,-0.31,-0.59,-0.55,-0.58,-0.76,-0.74,-0.75,1.0,2.0,21.0
64.0,65.0,64.67,1.0,-0.59,-0.29,-0.4,-0.05,0.57,0.14,-1.06,-0.71,-0.89,1.0,2.0,21.0
69.0,69.0,69.0,1.0,-0.56,-0.54,-0.55,-0.02,-0.0,-0.01,-0.84,-0.82,-0.83,1.0,2.0,21.0
65.0,66.0,65.5,1.0,-0.9,-0.08,-0.45,-0.3,1.67,0.19,-0.74,0.29,-0.5,1.0,2.0,21.0
61.0,62.0,61.5,1.0,-0.34,-0.32,-0.33,0.13,0.2,0.15,-0.94,-0.92,-0.93,1.0,2.0,21.0
63.0,77.0,69.5,1.0,-0.3,-0.28,-0.29,0.11,0.13,0.12,-0.95,-0.94,-0.95,1.0,2.0,21.0
64.0,66.0,64.8,1.0,-0.53,-0.52,-0.53,0.65,0.67,0.67,-0.54,-0.52,-0.52,1.0,2.0,21.0
60.0,64.0,61.83,1.0,-0.33,-0.31,-0.32,-0.17,-0.14,-0.15,-0.95,-0.93,-0.93,1.0,2.0,21.0
65.0,66.0,65.4,1.0,-0.57,-0.54,-0.55,0.42,0.56,0.45,-0.71,-0.69,-0.7,1.0,3.0,21.0
66.0,67.0,66.17,1.0,-0.46,-0.45,-0.46,0.14,0.15,0.15,-0.88,-0.87,-0.88,1.0,3.0,21.0
66.0,68.0,67.17,1.0,-0.46,-0.45,-0.46,0.14,0.15,0.15,-0.88,-0.87,-0.88,1.0,3.0,21.0
67.0,69.0,68.0,1.0,-0.45,-0.44,-0.45,0.14,0.15,0.14,-0.89,-0.88,-0.88,1.0,3.0,21.0
61.0,70.0,66.0,1.0,-0.28,-0.25,-0.26,-0.0,0.08,0.06,-1.01,-0.89,-0.96,0.0,5.0,21.0
64.0,69.0,66.5,1.0,-0.85,-0.24,-0.45,-0.36,0.11,-0.05,-0.97,-0.5,-0.86,0.0,5.0,21.0
64.0,67.0,65.0,1.0,-0.29,-0.27,-0.28,0.15,0.16,0.15,-0.95,-0.94,-0.95,0.0,5.0,21.0
63.0,65.0,63.5,1.0,-0.29,-0.25,-0.28,0.15,0.39,0.17,-0.96,-0.92,-0.94,0.0,5.0,21.0
63.0,67.0,65.17,1.0,-0.31,-0.3,-0.3,-0.14,-0.12,-0.13,-0.95,-0.93,-0.94,0.0,5.0,21.0
66.0,73.0,69.8,1.0,-0.33,-0.31,-0.32,-0.13,-0.1,-0.11,-0.95,-0.93,-0.94,0.0,5.0,21.0
59.0,60.0,59.33,1.0,-0.36,-0.34,-0.35,-0.05,-0.04,-0.04,-0.94,-0.93,-0.93,0.0,5.0,21.0
59.0,63.0,60.4,1.0,-0.36,-0.34,-0.35,-0.06,-0.04,-0.04,-0.94,-0.93,-0.93,0.0,5.0,21.0
67.0,68.0,67.5,1.0,-0.41,-0.4,-0.4,-0.18,-0.17,-0.17,-0.9,-0.89,-0.9,0.0,5.0,21.0
65.0,68.0,66.83,1.0,-0.33,-0.31,-0.32,-0.12,-0.1,-0.11,-0.95,-0.93,-0.94,0.0,5.0,21.0
60.0,63.0,61.67,1.0,-0.29,-0.27,-0.28,0.15,0.16,0.15,-0.95,-0.94,-0.95,0.0,5.0,21.0
52.0,75.0,59.17,1.0,-0.22,-0.21,-0.21,0.31,0.33,0.32,-0.93,-0.92,-0.93,0.0,0.0,6.0
51.0,54.0,52.5,1.0,0.6,0.61,0.61,-0.31,-0.3,-0.3,-0.74,-0.73,-0.73,0.0,0.0,6.0
54.0,55.0,54.2,1.0,0.28,0.3,0.29,0.09,0.12,0.11,-0.96,-0.94,-0.95,0.0,0.0,6.0
53.0,56.0,54.4,1.0,0.6,0.61,0.61,-0.31,-0.3,-0.3,-0.74,-0.73,-0.73,0.0,0.0,6.0
58.0,70.0,64.71,1.0,0.52,0.69,0.61,-0.44,-0.15,-0.31,-0.75,-0.68,-0.72,0.0,0.0,6.0
55.0,61.0,57.86,1.01,-0.14,-0.1,-0.11,0.96,1.02,0.98,-0.24,-0.15,-0.18,0.0,0.0,6.0
55.0,55.0,55.0,1.01,-0.35,1.0,0.66,0.11,1.33,0.57,-0.32,0.45,0.03,0.0,0.0,6.0
51.0,59.0,54.83,1.0,-0.47,-0.45,-0.46,-0.17,-0.16,-0.16,-0.88,-0.87,-0.88,0.0,0.0,6.0
53.0,54.0,53.17,0.99,-0.3,-0.29,-0.3,-0.4,-0.4,-0.4,0.86,0.87,0.86,0.0,0.0,6.0
52.0,57.0,54.67,0.99,-0.3,-0.29,-0.29,-0.42,-0.42,-0.42,0.85,0.86,0.85,0.0,0.0,6.0
51.0,54.0,53.14,1.0,-0.87,-0.8,-0.85,-0.46,-0.39,-0.45,-0.34,-0.23,-0.25,0.0,0.0,6.0
54.0,59.0,55.67,1.01,-0.14,-0.1,-0.12,0.96,1.0,0.97,-0.25,-0.18,-0.22,0.0,0.0,6.0
50.0,50.0,50.0,1.0,-0.44,-0.42,-0.43,0.2,0.22,0.21,-0.89,-0.87,-0.88,0.0,0.0,6.0
64.0,69.0,66.83,1.01,-0.48,-0.27,-0.38,0.72,0.95,0.86,0.3,0.59,0.36,0.0,0.0,6.0
55.0,58.0,56.14,1.0,0.53,0.57,0.54,-0.19,-0.12,-0.18,-0.83,-0.81,-0.82,1.0,1.0,6.0
50.0,52.0,51.0,1.0,-0.44,-0.42,-0.43,0.18,0.21,0.2,-0.89,-0.88,-0.88,1.0,1.0,6.0
50.0,52.0,51.0,1.0,-0.86,-0.85,-0.86,-0.46,-0.44,-0.45,-0.26,-0.24,-0.25,1.0,1.0,6.0
50.0,50.0,50.0,1.0,-0.44,-0.43,-0.43,0.19,0.21,0.2,-0.89,-0.87,-0.88,1.0,1.0,6.0
50.0,57.0,52.6,1.0,0.25,0.26,0.25,0.03,0.04,0.04,-0.97,-0.96,-0.97,1.0,1.0,6.0
51.0,52.0,51.17,1.0,-0.44,-0.42,-0.43,0.19,0.2,0.19,-0.89,-0.88,-0.88,1.0,1.0,6.0
51.0,52.0,51.33,1.0,-0.44,-0.42,-0.43,0.18,0.2,0.19,-0.89,-0.88,-0.88,1.0,1.0,6.0
50.0,58.0,52.83,1.0,0.3,0.32,0.31,0.13,0.17,0.16,-0.95,-0.93,-0.94,1.0,1.0,6.0
54.0,57.0,54.86,0.99,-0.3,-0.29,-0.29,-0.4,-0.4,-0.4,0.86,0.86,0.86,1.0,1.0,6.0
50.0,50.0,50.0,1.0,-0.44,-0.42,-0.43,0.18,0.2,0.19,-0.89,-0.88,-0.88,1.0,1.0,6.0
50.0,53.0,52.33,1.0,-0.66,-0.65,-0.65,0.25,0.27,0.26,-0.73,-0.71,-0.71,1.0,2.0,6.0
58.0,59.0,58.83,1.0,0.3,0.32,0.31,0.14,0.17,0.16,-0.95,-0.93,-0.94,1.0,2.0,6.0
51.0,51.0,51.0,1.0,-0.66,-0.65,-0.66,0.14,0.15,0.14,-0.75,-0.74,-0.74,1.0,2.0,6.0
51.0,54.0,51.83,1.0,-0.67,-0.64,-0.66,0.24,0.28,0.26,-0.77,-0.7,-0.71,1.0,2.0,6.0
50.0,51.0,50.8,1.0,0.66,0.68,0.67,0.44,0.46,0.45,-0.6,-0.59,-0.59,1.0,3.0,6.0
52.0,54.0,53.14,1.0,0.67,0.68,0.67,0.46,0.47,0.47,-0.58,-0.57,-0.58,1.0,3.0,6.0
56.0,58.0,57.0,1.0,0.54,0.55,0.55,0.04,0.07,0.06,-0.84,-0.83,-0.84,1.0,3.0,6.0
57.0,58.0,57.83,1.0,0.67,0.68,0.67,0.43,0.44,0.43,-0.61,-0.6,-0.6,1.0,3.0,6.0
50.0,50.0,50.0,1.0,-0.68,-0.64,-0.65,0.24,0.26,0.25,-0.73,-0.7,-0.72,1.0,3.0,6.0
51.0,53.0,52.17,1.0,-0.67,-0.65,-0.65,0.1,0.16,0.13,-0.77,-0.74,-0.75,1.0,3.0,6.0
54.0,56.0,55.14,1.0,0.68,0.69,0.68,0.47,0.48,0.47,-0.57,-0.56,-0.56,1.0,3.0,6.0
54.0,57.0,54.6,1.0,0.67,0.68,0.68,0.45,0.46,0.45,-0.59,-0.58,-0.58,1.0,3.0,6.0
52.0,56.0,54.67,1.0,-0.66,-0.65,-0.65,0.12,0.14,0.13,-0.76,-0.74,-0.75,1.0,3.0,6.0
54.0,56.0,55.0,1.0,0.39,0.4,0.4,0.2,0.21,0.2,-0.9,-0.89,-0.9,0.0,5.0,6.0
51.0,55.0,52.83,1.0,0.4,0.41,0.4,0.19,0.21,0.2,-0.9,-0.89,-0.89,0.0,5.0,6.0
54.0,58.0,56.0,1.0,-0.57,-0.56,-0.57,0.04,0.06,0.05,-0.83,-0.82,-0.82,0.0,5.0,6.0
50.0,54.0,52.67,0.99,0.63,0.64,0.63,-0.77,-0.75,-0.76,0.09,0.1,0.1,0.0,5.0,6.0
54.0,56.0,55.17,1.0,-0.67,-0.65,-0.66,0.13,0.15,0.14,-0.75,-0.73,-0.74,0.0,5.0,6.0
55.0,56.0,55.17,0.99,0.63,0.64,0.63,-0.76,-0.76,-0.76,0.09,0.1,0.09,0.0,5.0,6.0
54.0,68.0,56.8,1.0,0.4,0.41,0.41,0.2,0.21,0.21,-0.9,-0.89,-0.89,0.0,5.0,6.0
51.0,52.0,51.67,1.0,-0.66,-0.65,-0.65,0.15,0.16,0.15,-0.75,-0.74,-0.74,0.0,5.0,6.0
79.0,93.0,83.2,1.0,-0.8,-0.27,-0.64,-0.88,1.16,0.4,-0.61,0.87,0.03,0.0,0.0,5.0
69.0,69.0,69.0,0.99,-0.41,-0.4,-0.41,-0.09,-0.08,-0.08,-0.91,-0.89,-0.9,0.0,0.0,5.0
73.0,75.0,74.0,1.0,0.36,1.12,0.52,0.0,0.65,0.51,-0.78,-0.21,-0.65,0.0,0.0,5.0
67.0,72.0,68.4,1.0,0.11,0.11,0.11,0.26,0.27,0.27,-0.96,-0.95,-0.95,0.0,0.0,5.0
80.0,86.0,83.33,0.99,-0.21,-0.2,-0.2,-0.95,-0.94,-0.94,0.23,0.24,0.23,1.0,1.0,5.0
69.0,73.0,70.5,0.99,-0.32,-0.31,-0.32,0.26,0.27,0.26,-0.9,-0.9,-0.9,1.0,1.0,5.0
77.0,79.0,77.4,1.0,0.08,0.08,0.08,-0.99,-0.99,-0.99,0.03,0.03,0.03,1.0,1.0,5.0
76.0,83.0,78.2,0.99,-0.39,-0.38,-0.39,-0.16,-0.15,-0.15,-0.9,-0.89,-0.9,1.0,1.0,5.0
74.0,78.0,75.83,0.99,-0.2,-0.2,-0.2,-0.95,-0.94,-0.94,0.23,0.24,0.24,1.0,1.0,5.0
77.0,86.0,81.67,0.99,-0.21,-0.2,-0.2,-0.95,-0.94,-0.94,0.23,0.23,0.23,1.0,1.0,5.0
77.0,82.0,78.0,1.0,0.16,0.17,0.16,-0.54,-0.53,-0.54,0.83,0.83,0.83,1.0,2.0,5.0
75.0,77.0,76.0,0.99,-0.18,-0.18,-0.18,-0.98,-0.97,-0.98,-0.05,-0.05,-0.05,1.0,2.0,5.0
74.0,78.0,76.5,0.99,-0.39,-0.38,-0.39,-0.16,-0.15,-0.16,-0.9,-0.89,-0.9,1.0,2.0,5.0
69.0,74.0,71.83,0.99,-0.32,-0.31,-0.31,0.27,0.29,0.27,-0.9,-0.9,-0.9,1.0,2.0,5.0
76.0,78.0,77.0,0.99,-0.3,-0.3,-0.3,0.66,0.66,0.66,-0.68,-0.68,-0.68,1.0,2.0,5.0
76.0,80.0,78.0,1.0,0.42,0.43,0.42,-0.17,-0.16,-0.16,-0.89,-0.88,-0.89,1.0,2.0,5.0
65.0,70.0,67.57,1.01,0.49,0.49,0.49,-0.19,-0.19,-0.19,0.85,0.86,0.86,1.0,2.0,5.0
73.0,75.0,73.8,0.99,-0.32,-0.31,-0.31,0.26,0.28,0.27,-0.91,-0.9,-0.9,1.0,2.0,5.0
69.0,79.0,74.29,0.99,-0.31,-0.31,-0.31,0.27,0.29,0.28,-0.9,-0.9,-0.9,1.0,2.0,5.0
73.0,75.0,73.67,1.01,0.28,0.28,0.28,0.3,0.31,0.31,0.92,0.92,0.92,1.0,3.0,5.0
77.0,80.0,77.5,1.01,0.26,0.27,0.27,0.97,0.97,0.97,-0.06,-0.05,-0.06,1.0,3.0,5.0
77.0,80.0,78.8,1.01,0.26,0.27,0.27,0.96,0.97,0.97,-0.07,-0.06,-0.07,1.0,3.0,5.0
73.0,77.0,75.4,1.01,0.27,0.28,0.27,0.3,0.3,0.3,0.92,0.92,0.92,1.0,3.0,5.0
80.0,83.0,80.67,1.01,0.2,0.2,0.2,0.98,0.99,0.98,-0.05,-0.05,-0.05,1.0,3.0,5.0
78.0,79.0,78.6,1.0,0.2,0.2,0.2,0.98,0.99,0.98,-0.05,-0.05,-0.05,1.0,3.0,5.0
74.0,77.0,75.5,1.01,0.27,0.27,0.27,0.3,0.3,0.3,0.92,0.92,0.92,1.0,3.0,5.0
77.0,78.0,77.33,1.01,0.21,0.28,0.25,0.95,0.98,0.97,-0.15,-0.0,-0.06,1.0,3.0,5.0
74.0,80.0,76.67,1.0,0.47,0.48,0.48,0.01,0.02,0.01,-0.88,-0.87,-0.87,1.0,3.0,5.0
76.0,77.0,76.33,1.0,0.25,0.26,0.26,0.97,0.97,0.97,-0.05,-0.05,-0.05,1.0,3.0,5.0
75.0,76.0,75.5,1.01,0.27,0.28,0.27,0.3,0.3,0.3,0.92,0.92,0.92,1.0,3.0,5.0
89.0,95.0,92.0,0.99,-0.08,-0.07,-0.08,0.24,0.26,0.25,-0.96,-0.96,-0.96,0.0,5.0,5.0
89.0,93.0,90.33,1.01,0.25,0.25,0.25,0.34,0.34,0.34,0.91,0.92,0.91,0.0,5.0,5.0
89.0,92.0,90.33,0.99,-0.08,-0.06,-0.07,0.24,0.26,0.25,-0.97,-0.96,-0.96,0.0,5.0,5.0
75.0,77.0,75.67,0.99,-0.39,-0.38,-0.39,-0.16,-0.15,-0.15,-0.9,-0.89,-0.9,0.0,5.0,5.0
84.0,86.0,84.5,0.99,0.33,0.34,0.34,-0.25,-0.24,-0.25,-0.91,-0.9,-0.9,0.0,5.0,5.0
81.0,85.0,83.0,0.99,0.34,0.34,0.34,-0.25,-0.24,-0.25,-0.91,-0.9,-0.9,0.0,5.0,5.0
70.0,72.0,70.8,0.99,-0.2,-0.2,-0.2,-0.97,-0.97,-0.97,-0.07,-0.07,-0.07,0.0,5.0,5.0
71.0,72.0,71.2,1.01,0.25,0.25,0.25,0.34,0.34,0.34,0.91,0.92,0.91,0.0,5.0,5.0
80.0,85.0,82.0,0.99,0.33,0.34,0.34,-0.25,-0.24,-0.25,-0.9,-0.9,-0.9,0.0,5.0,5.0
75.0,77.0,76.67,0.99,-0.36,-0.35,-0.36,0.32,0.34,0.33,-0.87,-0.86,-0.86,0.0,5.0,5.0
70.0,72.0,70.6,0.99,-0.32,-0.31,-0.31,0.27,0.28,0.27,-0.91,-0.89,-0.9,0.0,5.0,5.0
69.0,72.0,70.0,0.99,-0.2,-0.19,-0.19,-0.97,-0.97,-0.97,-0.07,-0.06,-0.06,0.0,5.0,5.0
79.0,82.0,79.8,1.0,0.1,0.1,0.1,0.28,0.28,0.28,-0.95,-0.95,-0.95,0.0,5.0,5.0
73.0,76.0,74.83,0.99,-0.39,-0.39,-0.39,-0.16,-0.15,-0.15,-0.91,-0.89,-0.9,0.0,5.0,5.0
74.0,76.0,75.33,0.99,-0.2,-0.2,-0.2,-0.97,-0.97,-0.97,-0.08,-0.07,-0.07,0.0,5.0,5.0
80.0,86.0,82.17,1.0,0.1,0.1,0.1,0.28,0.28,0.28,-0.95,-0.95,-0.95,0.0,5.0,5.0
76.0,77.0,76.17,0.99,-0.2,-0.2,-0.2,-0.97,-0.97,-0.97,-0.08,-0.07,-0.07,0.0,5.0,5.0
59.0,68.0,62.86,1.0,0.45,0.47,0.45,-0.13,-0.12,-0.13,-0.89,-0.87,-0.88,0.0,0.0,3.0
56.0,68.0,60.5,1.0,-0.46,-0.36,-0.4,0.84,0.97,0.91,0.02,0.33,0.11,0.0,0.0,3.0
51.0,52.0,51.67,1.0,-0.54,-0.09,-0.32,0.32,1.0,0.84,-0.95,0.44,-0.15,0.0,0.0,3.0
61.0,64.0,62.33,1.0,0.44,0.46,0.45,-0.13,-0.12,-0.13,-0.91,-0.87,-0.88,0.0,0.0,3.0
58.0,58.0,58.0,1.0,-0.28,-0.27,-0.27,-0.36,-0.34,-0.35,0.88,0.9,0.89,0.0,0.0,3.0
59.0,61.0,59.6,1.0,0.44,0.46,0.45,-0.13,-0.12,-0.12,-0.89,-0.88,-0.89,1.0,1.0,3.0
61.0,63.0,62.33,1.0,0.44,0.46,0.45,-0.13,-0.12,-0.13,-0.89,-0.88,-0.88,1.0,1.0,3.0
57.0,64.0,59.17,1.0,0.44,0.46,0.45,-0.13,-0.12,-0.13,-0.89,-0.88,-0.88,1.0,1.0,3.0
60.0,61.0,60.17,1.0,0.44,0.46,0.45,-0.13,-0.12,-0.12,-0.9,-0.88,-0.89,1.0,1.0,3.0
59.0,63.0,61.33,1.0,0.44,0.46,0.45,-0.13,-0.11,-0.12,-0.89,-0.87,-0.89,1.0,1.0,3.0
59.0,60.0,59.83,1.0,0.44,0.46,0.45,-0.13,-0.12,-0.12,-0.89,-0.88,-0.89,1.0,1.0,3.0
56.0,59.0,57.67,1.0,0.36,0.37,0.36,0.12,0.12,0.12,-0.93,-0.92,-0.93,1.0,2.0,3.0
59.0,60.0,59.67,1.0,0.44,0.46,0.45,-0.13,-0.12,-0.12,-0.89,-0.88,-0.89,1.0,2.0,3.0
59.0,62.0,60.83,1.0,0.44,0.46,0.45,-0.13,-0.11,-0.12,-0.9,-0.88,-0.89,1.0,2.0,3.0
53.0,57.0,54.0,1.0,-0.26,-0.25,-0.26,-0.3,-0.29,-0.29,0.91,0.92,0.92,1.0,2.0,3.0
54.0,56.0,55.0,1.0,-0.18,-0.17,-0.18,-0.2,-0.2,-0.2,0.96,0.96,0.96,1.0,2.0,3.0
53.0,55.0,54.0,1.0,0.45,0.47,0.46,-0.14,-0.13,-0.14,-0.88,-0.87,-0.88,1.0,2.0,3.0
53.0,53.0,53.0,1.0,-0.26,-0.25,-0.26,-0.33,-0.32,-0.33,0.9,0.91,0.91,1.0,2.0,3.0
56.0,59.0,58.0,1.0,0.35,0.37,0.36,0.11,0.12,0.12,-0.93,-0.92,-0.93,1.0,2.0,3.0
59.0,65.0,61.4,1.0,-0.61,-0.6,-0.6,-0.14,-0.12,-0.13,-0.8,-0.78,-0.79,1.0,2.0,3.0
62.0,63.0,62.4,1.0,-0.61,-0.6,-0.61,-0.14,-0.13,-0.14,-0.8,-0.78,-0.79,1.0,2.0,3.0
60.0,62.0,61.5,1.0,-0.36,-0.35,-0.36,-0.22,-0.21,-0.21,0.9,0.91,0.91,0.0,5.0,3.0
59.0,61.0,59.8,1.0,-0.37,-0.36,-0.37,-0.22,-0.22,-0.22,0.9,0.91,0.9,0.0,5.0,3.0
51.0,56.0,53.4,1.0,-0.61,-0.59,-0.6,-0.14,-0.12,-0.13,-0.8,-0.79,-0.79,0.0,5.0,3.0
60.0,63.0,61.2,1.0,-0.61,-0.59,-0.6,-0.14,-0.12,-0.13,-0.8,-0.79,-0.79,0.0,5.0,3.0
69.0,77.0,74.29,1.0,-0.01,0.0,-0.0,-1.0,-0.99,-0.99,0.09,0.11,0.1,0.0,0.0,7.0
73.0,75.0,73.8,1.01,0.39,0.42,0.4,0.14,0.23,0.2,0.88,0.92,0.9,0.0,0.0,7.0
63.0,67.0,65.33,1.0,0.04,0.04,0.04,-0.99,-0.98,-0.99,0.14,0.16,0.15,0.0,0.0,7.0
75.0,77.0,75.67,1.0,-0.01,0.0,-0.0,-1.0,-0.99,-0.99,0.09,0.11,0.1,0.0,0.0,7.0
74.0,75.0,74.33,1.01,0.4,0.4,0.4,0.18,0.2,0.19,0.9,0.91,0.9,0.0,0.0,7.0
69.0,69.0,69.0,1.0,0.11,0.13,0.12,-0.95,-0.93,-0.94,0.28,0.35,0.33,1.0,1.0,7.0
68.0,72.0,68.83,1.01,0.28,0.28,0.28,-0.3,-0.29,-0.3,0.92,0.93,0.92,1.0,1.0,7.0
73.0,74.0,73.2,0.99,-0.1,-0.02,-0.05,0.12,0.22,0.16,-1.01,-0.93,-0.98,1.0,1.0,7.0
62.0,63.0,62.17,0.99,-0.24,-0.23,-0.24,-0.04,-0.02,-0.03,-0.96,-0.96,-0.96,1.0,1.0,7.0
64.0,65.0,64.17,0.99,-0.26,-0.25,-0.25,-0.3,-0.28,-0.29,-0.92,-0.9,-0.91,1.0,1.0,7.0
57.0,58.0,57.33,1.0,0.17,0.18,0.18,-0.9,-0.88,-0.89,0.41,0.44,0.42,1.0,2.0,7.0
66.0,69.0,68.14,1.0,0.3,0.32,0.3,0.63,0.65,0.64,0.71,0.75,0.72,1.0,2.0,7.0
74.0,75.0,74.67,1.01,0.3,0.31,0.31,-0.37,-0.36,-0.37,0.88,0.89,0.89,1.0,2.0,7.0
74.0,75.0,74.2,1.01,0.39,0.39,0.39,0.27,0.28,0.27,0.88,0.89,0.89,1.0,2.0,7.0
77.0,77.0,77.0,0.99,-0.05,-0.04,-0.04,0.15,0.16,0.16,-0.98,-0.97,-0.98,1.0,2.0,7.0
60.0,61.0,60.5,0.99,-0.22,-0.21,-0.22,0.12,0.14,0.13,-0.96,-0.95,-0.96,1.0,3.0,7.0
62.0,62.0,62.0,0.99,-0.22,-0.21,-0.21,0.11,0.13,0.12,-0.96,-0.95,-0.96,1.0,3.0,7.0
60.0,61.0,60.83,0.99,-0.22,-0.21,-0.21,0.11,0.13,0.12,-0.97,-0.95,-0.96,1.0,3.0,7.0
61.0,62.0,61.6,0.99,-0.22,-0.21,-0.21,0.11,0.13,0.12,-0.96,-0.95,-0.96,1.0,3.0,7.0
60.0,67.0,61.4,0.99,-0.23,-0.21,-0.22,0.12,0.14,0.13,-0.96,-0.95,-0.96,1.0,3.0,7.0
63.0,68.0,66.17,0.99,-0.23,-0.21,-0.22,0.12,0.14,0.13,-0.96,-0.95,-0.96,1.0,3.0,7.0
73.0,74.0,73.83,1.0,-0.11,-0.1,-0.1,0.8,0.81,0.81,0.58,0.59,0.58,0.0,5.0,7.0
72.0,73.0,72.5,1.0,-0.11,-0.02,-0.08,0.77,0.87,0.81,0.5,0.63,0.59,0.0,5.0,7.0
71.0,74.0,72.5,1.0,-0.49,0.69,0.24,-1.16,0.91,-0.86,-1.44,0.44,0.28,0.0,5.0,7.0
67.0,68.0,67.33,1.0,-0.29,-0.28,-0.28,-0.23,-0.22,-0.22,-0.94,-0.93,-0.93,1.0,1.0,30.0
66.0,68.0,67.17,1.0,-0.03,-0.03,-0.03,-0.01,-0.01,-0.01,0.99,1.0,1.0,1.0,1.0,30.0
70.0,72.0,71.4,1.0,0.78,0.79,0.78,-0.04,-0.04,-0.04,-0.62,-0.61,-0.62,1.0,1.0,30.0
70.0,71.0,70.2,1.0,0.07,0.08,0.08,-0.44,-0.43,-0.43,-0.9,-0.89,-0.9,1.0,1.0,30.0
71.0,75.0,73.83,1.0,-0.3,-0.29,-0.29,0.08,0.12,0.1,-0.96,-0.95,-0.95,1.0,1.0,30.0
65.0,66.0,65.83,1.0,-0.21,-0.14,-0.19,0.58,0.64,0.61,-0.81,-0.75,-0.77,1.0,2.0,30.0
70.0,71.0,70.17,1.0,0.07,0.08,0.08,-0.44,-0.43,-0.44,-0.9,-0.89,-0.9,1.0,2.0,30.0
65.0,70.0,67.4,1.0,0.78,0.85,0.81,0.08,0.33,0.17,-0.6,-0.5,-0.55,1.0,2.0,30.0
67.0,68.0,67.4,1.0,-0.1,-0.09,-0.1,0.4,0.41,0.4,-0.92,-0.91,-0.91,1.0,2.0,30.0
59.0,62.0,60.33,1.0,-0.05,-0.05,-0.05,0.09,0.1,0.09,-1.0,-0.99,-1.0,1.0,2.0,30.0
67.0,68.0,67.8,1.0,-0.11,-0.1,-0.1,0.43,0.43,0.43,-0.9,-0.9,-0.9,1.0,2.0,30.0
67.0,68.0,67.5,1.0,-0.1,-0.09,-0.1,0.4,0.41,0.4,-0.92,-0.91,-0.91,1.0,2.0,30.0
68.0,68.0,68.0,1.0,-0.03,-0.03,-0.03,-0.01,-0.0,-0.0,0.99,1.0,1.0,1.0,2.0,30.0
71.0,77.0,73.0,1.0,0.78,0.79,0.79,-0.04,-0.04,-0.04,-0.62,-0.61,-0.62,1.0,2.0,30.0
77.0,79.0,77.6,1.0,-0.3,-0.3,-0.3,0.11,0.12,0.11,-0.95,-0.95,-0.95,1.0,3.0,30.0
81.0,96.0,88.83,1.0,-0.3,-0.29,-0.3,0.1,0.12,0.11,-0.95,-0.95,-0.95,1.0,3.0,30.0
77.0,86.0,81.33,1.0,-0.3,-0.29,-0.3,0.11,0.12,0.11,-0.95,-0.95,-0.95,1.0,3.0,30.0
66.0,68.0,67.17,1.0,-0.68,-0.67,-0.68,-0.73,-0.72,-0.72,-0.11,-0.1,-0.1,0.0,5.0,30.0
66.0,66.0,66.0,1.0,-0.18,-0.17,-0.17,0.31,0.32,0.31,-0.94,-0.93,-0.94,0.0,5.0,30.0
67.0,68.0,67.4,1.0,-0.68,-0.67,-0.68,-0.73,-0.72,-0.72,-0.11,-0.1,-0.1,0.0,5.0,30.0
73.0,78.0,75.0,1.0,-0.1,-0.09,-0.1,0.54,0.55,0.54,-0.84,-0.84,-0.84,0.0,5.0,30.0
67.0,69.0,67.83,1.0,-0.28,-0.28,-0.28,-0.23,-0.22,-0.22,-0.94,-0.93,-0.93,0.0,5.0,30.0
71.0,79.0,72.8,1.0,0.46,0.46,0.46,-0.81,-0.8,-0.81,-0.36,-0.34,-0.35,0.0,5.0,30.0
63.0,65.0,64.2,1.0,0.22,0.24,0.23,-0.07,-0.03,-0.04,-0.97,-0.95,-0.97,0.0,0.0,19.0
75.0,77.0,76.2,1.0,0.64,0.66,0.65,0.17,0.19,0.18,-0.74,-0.73,-0.74,0.0,0.0,19.0
72.0,74.0,73.4,1.0,0.64,0.65,0.65,0.2,0.22,0.21,-0.74,-0.73,-0.73,0.0,0.0,19.0
75.0,80.0,76.8,1.0,0.53,0.58,0.56,0.05,0.09,0.06,-0.85,-0.81,-0.82,0.0,0.0,19.0
69.0,86.0,78.33,1.0,0.2,0.24,0.23,-0.34,-0.28,-0.33,-0.96,-0.89,-0.92,0.0,0.0,19.0
73.0,77.0,76.0,1.0,0.64,0.66,0.65,0.17,0.19,0.18,-0.74,-0.73,-0.74,0.0,0.0,19.0
67.0,67.0,67.0,1.0,0.09,0.1,0.1,0.67,0.68,0.67,-0.74,-0.73,-0.73,0.0,0.0,19.0
63.0,67.0,64.67,1.0,0.22,0.23,0.23,-0.06,-0.04,-0.05,-0.97,-0.97,-0.97,0.0,0.0,19.0
77.0,81.0,78.8,1.0,0.19,0.2,0.19,0.15,0.17,0.16,-0.97,-0.96,-0.97,0.0,0.0,19.0
68.0,71.0,68.67,1.0,0.21,0.23,0.22,-0.06,-0.03,-0.05,-0.99,-0.97,-0.97,0.0,0.0,19.0
74.0,77.0,75.0,1.0,0.22,0.23,0.22,-0.37,-0.36,-0.36,-0.91,-0.9,-0.9,0.0,0.0,19.0
76.0,77.0,76.83,1.0,0.22,0.23,0.23,-0.34,-0.32,-0.33,-0.92,-0.91,-0.91,0.0,0.0,19.0
65.0,67.0,66.0,1.0,0.22,0.23,0.22,-0.05,-0.05,-0.05,-0.97,-0.97,-0.97,0.0,0.0,19.0
70.0,75.0,72.5,1.0,0.23,0.24,0.23,-0.33,-0.32,-0.32,-0.92,-0.91,-0.92,0.0,0.0,19.0
77.0,78.0,77.17,1.0,0.22,0.23,0.23,-0.36,-0.33,-0.36,-0.91,-0.9,-0.9,0.0,0.0,19.0
70.0,71.0,70.2,1.0,0.09,0.1,0.09,0.17,0.18,0.18,-0.98,-0.97,-0.98,0.0,0.0,19.0
74.0,78.0,76.0,1.0,0.21,0.22,0.22,-0.36,-0.35,-0.36,-0.91,-0.9,-0.91,0.0,0.0,19.0
75.0,77.0,75.5,1.0,0.19,0.2,0.19,0.15,0.16,0.15,-0.97,-0.96,-0.97,0.0,0.0,19.0
84.0,87.0,85.8,1.0,-0.62,-0.61,-0.62,0.06,0.08,0.07,-0.79,-0.78,-0.78,1.0,1.0,19.0
68.0,69.0,68.33,1.0,-0.46,-0.45,-0.46,0.57,0.59,0.58,-0.68,-0.67,-0.67,1.0,1.0,19.0
73.0,77.0,74.83,1.0,-0.36,-0.35,-0.36,0.82,0.82,0.82,-0.45,-0.44,-0.45,1.0,2.0,19.0
69.0,73.0,70.33,1.0,-0.6,-0.59,-0.6,0.05,0.07,0.06,-0.8,-0.79,-0.8,1.0,2.0,19.0
77.0,77.0,77.0,1.0,-0.44,-0.4,-0.43,0.86,0.9,0.87,-0.25,-0.23,-0.24,1.0,2.0,19.0
66.0,71.0,68.5,1.0,-0.45,-0.44,-0.45,0.58,0.6,0.59,-0.68,-0.67,-0.67,1.0,2.0,19.0
77.0,77.0,77.0,1.0,-0.6,-0.59,-0.6,0.07,0.08,0.07,-0.8,-0.79,-0.8,1.0,3.0,19.0
76.0,79.0,77.67,1.0,-0.61,-0.6,-0.6,0.11,0.12,0.12,-0.79,-0.78,-0.79,1.0,3.0,19.0
73.0,82.0,76.2,1.0,-0.44,-0.43,-0.43,0.85,0.87,0.87,-0.25,-0.23,-0.24,1.0,3.0,19.0
74.0,77.0,75.33,1.0,-0.6,-0.59,-0.6,-0.68,-0.66,-0.67,-0.44,-0.43,-0.44,1.0,3.0,19.0
77.0,77.0,77.0,1.0,-0.44,-0.43,-0.43,0.86,0.88,0.87,-0.25,-0.24,-0.24,1.0,3.0,19.0
73.0,75.0,74.5,1.0,-0.51,-0.5,-0.51,0.82,0.83,0.83,-0.25,-0.24,-0.25,1.0,3.0,19.0
73.0,76.0,74.4,1.0,-0.81,-0.79,-0.8,-0.06,-0.05,-0.06,-0.6,-0.59,-0.59,1.0,3.0,19.0
72.0,78.0,75.17,1.0,-0.52,-0.51,-0.51,0.82,0.83,0.83,-0.24,-0.23,-0.23,1.0,3.0,19.0
72.0,75.0,74.17,1.0,-0.51,-0.5,-0.51,0.82,0.83,0.83,-0.25,-0.24,-0.25,1.0,3.0,19.0
77.0,78.0,77.4,1.0,-0.45,-0.45,-0.45,-0.78,-0.76,-0.77,-0.46,-0.44,-0.45,1.0,3.0,19.0
76.0,77.0,76.83,1.0,-0.54,-0.54,-0.54,0.82,0.83,0.82,-0.19,-0.18,-0.18,1.0,3.0,19.0
75.0,80.0,77.4,1.0,-0.6,-0.59,-0.6,-0.68,-0.66,-0.67,-0.45,-0.43,-0.44,1.0,3.0,19.0
68.0,73.0,70.83,1.0,-0.79,-0.78,-0.78,-0.04,-0.03,-0.03,-0.63,-0.61,-0.62,0.0,5.0,19.0
73.0,77.0,75.67,1.0,-0.62,-0.61,-0.62,0.05,0.07,0.06,-0.79,-0.78,-0.78,0.0,5.0,19.0
75.0,80.0,77.83,1.0,-0.37,-0.36,-0.37,0.83,0.84,0.83,-0.42,-0.41,-0.42,0.0,5.0,19.0
71.0,73.0,71.33,1.0,-0.64,-0.63,-0.63,0.13,0.14,0.13,-0.76,-0.76,-0.76,0.0,5.0,19.0
71.0,74.0,71.8,1.0,-0.63,-0.62,-0.63,0.13,0.14,0.14,-0.77,-0.76,-0.76,0.0,5.0,19.0
74.0,79.0,75.17,1.0,-0.38,-0.36,-0.37,0.83,0.84,0.83,-0.43,-0.41,-0.42,0.0,5.0,19.0
47.0,48.0,47.6,0.99,0.42,0.42,0.42,-0.84,-0.83,-0.84,0.33,0.34,0.34,0.0,0.0,12.0
45.0,48.0,46.17,1.0,-0.99,-0.43,-0.72,-1.08,-0.2,-0.57,-0.68,0.42,-0.29,0.0,0.0,12.0
47.0,48.0,47.4,0.99,0.4,0.41,0.4,-0.73,-0.72,-0.73,0.54,0.55,0.54,0.0,0.0,12.0
64.0,65.0,64.83,0.99,0.48,0.5,0.5,-0.83,-0.81,-0.82,0.23,0.27,0.26,0.0,0.0,12.0
52.0,57.0,54.5,1.0,-0.36,-0.36,-0.36,-0.13,-0.12,-0.13,0.92,0.92,0.92,0.0,0.0,12.0
46.0,47.0,46.6,0.99,0.25,0.53,0.41,-1.07,-0.58,-0.82,0.19,0.65,0.37,0.0,0.0,12.0
55.0,60.0,57.4,1.0,-0.34,-0.32,-0.32,-0.89,-0.84,-0.87,-0.39,-0.34,-0.36,0.0,0.0,12.0
46.0,47.0,46.83,0.99,0.42,0.42,0.42,-0.84,-0.83,-0.83,0.34,0.34,0.34,0.0,0.0,12.0
51.0,57.0,54.0,1.0,-0.37,-0.36,-0.37,-0.08,-0.07,-0.08,0.92,0.93,0.92,1.0,1.0,12.0
64.0,67.0,65.0,1.0,0.26,0.26,0.26,-0.38,-0.37,-0.38,-0.89,-0.88,-0.89,1.0,1.0,12.0
50.0,50.0,50.0,1.0,0.26,0.27,0.26,-0.35,-0.34,-0.34,-0.91,-0.9,-0.9,1.0,1.0,12.0
49.0,50.0,49.8,1.01,-0.1,0.96,0.15,-1.32,1.04,-0.77,-1.43,0.69,0.16,1.0,1.0,12.0
48.0,50.0,49.2,1.0,0.26,0.26,0.26,-0.41,-0.39,-0.4,-0.88,-0.87,-0.88,1.0,1.0,12.0
57.0,61.0,59.0,0.99,0.51,0.52,0.52,-0.81,-0.81,-0.81,0.25,0.25,0.25,1.0,2.0,12.0
60.0,65.0,62.67,0.99,0.43,0.43,0.43,-0.88,-0.87,-0.88,0.18,0.19,0.18,1.0,2.0,12.0
62.0,62.0,62.0,0.99,0.51,0.52,0.52,-0.81,-0.81,-0.81,0.25,0.26,0.25,1.0,2.0,12.0
50.0,52.0,50.67,0.99,0.37,0.38,0.37,-0.82,-0.82,-0.82,0.42,0.43,0.42,1.0,3.0,12.0
51.0,51.0,51.0,0.99,0.37,0.38,0.38,-0.83,-0.81,-0.82,0.41,0.43,0.42,1.0,3.0,12.0
67.0,71.0,68.67,0.99,0.43,0.44,0.43,-0.81,-0.8,-0.8,0.39,0.4,0.39,1.0,3.0,12.0
69.0,71.0,69.67,0.99,0.43,0.44,0.43,-0.81,-0.8,-0.8,0.39,0.4,0.39,1.0,3.0,12.0
46.0,47.0,46.5,0.99,0.37,0.37,0.37,-0.88,-0.87,-0.87,0.3,0.3,0.3,1.0,3.0,12.0
51.0,58.0,54.0,0.99,0.53,0.6,0.55,-0.82,-0.75,-0.79,0.21,0.36,0.24,0.0,5.0,12.0
50.0,54.0,51.4,1.0,-0.07,0.66,0.12,-0.96,-0.13,-0.21,-1.03,0.4,-0.93,0.0,5.0,12.0
52.0,52.0,52.0,1.0,0.32,0.33,0.33,-0.86,-0.85,-0.85,-0.4,-0.39,-0.4,0.0,5.0,12.0
48.0,50.0,49.2,1.0,0.34,0.34,0.34,-0.83,-0.82,-0.83,-0.44,-0.43,-0.43,0.0,5.0,12.0
51.0,53.0,52.0,0.99,-0.28,-0.21,-0.24,-1.0,-0.93,-0.96,-0.16,-0.01,-0.08,0.0,5.0,12.0
49.0,50.0,49.5,1.0,0.32,0.33,0.33,-0.85,-0.85,-0.85,-0.4,-0.39,-0.4,0.0,5.0,12.0
72.0,76.0,74.17,1.0,0.42,1.0,0.49,-0.34,0.15,-0.05,-1.38,-0.41,-0.86,1.0,1.0,13.0
71.0,76.0,74.17,1.0,0.49,0.5,0.5,-0.12,-0.1,-0.11,-0.86,-0.85,-0.86,1.0,1.0,13.0
70.0,72.0,71.33,1.0,0.31,0.32,0.31,-0.22,-0.2,-0.21,-0.93,-0.92,-0.92,1.0,2.0,13.0
70.0,70.0,70.0,1.0,-0.16,-0.15,-0.15,0.87,0.88,0.87,-0.46,-0.45,-0.45,1.0,2.0,13.0
68.0,71.0,69.5,1.0,0.29,0.3,0.29,-0.22,-0.2,-0.21,-0.93,-0.92,-0.93,1.0,3.0,13.0
68.0,70.0,69.0,1.0,0.28,0.3,0.29,-0.21,-0.2,-0.21,-0.94,-0.93,-0.93,1.0,3.0,13.0
68.0,71.0,69.0,1.0,0.27,0.29,0.28,-0.2,-0.19,-0.2,-0.94,-0.93,-0.93,1.0,3.0,13.0
72.0,72.0,72.0,0.99,-0.41,-0.39,-0.4,0.21,0.3,0.27,-0.9,-0.84,-0.87,1.0,3.0,13.0
65.0,65.0,65.0,1.0,-0.15,-0.14,-0.15,-0.75,-0.72,-0.74,0.65,0.66,0.66,1.0,1.0,4.0
61.0,63.0,62.0,1.0,-0.27,-0.25,-0.26,-0.22,-0.19,-0.21,-0.95,-0.93,-0.94,1.0,1.0,4.0
60.0,66.0,63.0,1.0,-0.36,-0.34,-0.35,-0.49,-0.46,-0.48,-0.81,-0.79,-0.8,1.0,1.0,4.0
60.0,65.0,62.17,1.0,-0.17,-0.16,-0.16,0.21,0.22,0.21,-0.97,-0.96,-0.96,1.0,1.0,4.0
75.0,77.0,76.17,1.0,0.42,0.43,0.43,0.42,0.44,0.43,-0.8,-0.78,-0.79,1.0,2.0,4.0
64.0,65.0,64.33,1.0,0.58,0.59,0.59,-0.8,-0.8,-0.8,0.08,0.09,0.08,1.0,2.0,4.0
59.0,71.0,65.43,1.0,0.44,0.46,0.45,-0.01,0.01,-0.0,-0.9,-0.89,-0.89,1.0,2.0,4.0
65.0,71.0,68.17,1.0,-0.28,-0.26,-0.27,-0.85,-0.83,-0.84,0.46,0.48,0.47,1.0,2.0,4.0
71.0,74.0,72.6,1.0,0.59,0.61,0.6,-0.83,-0.79,-0.8,0.02,0.04,0.03,1.0,2.0,4.0
62.0,64.0,63.0,1.0,0.45,0.46,0.46,-0.0,0.01,0.0,-0.89,-0.88,-0.89,1.0,2.0,4.0
73.0,81.0,76.17,1.0,-0.54,-0.09,-0.35,-0.98,0.06,-0.54,-1.0,0.54,-0.4,1.0,2.0,4.0
61.0,63.0,61.83,1.0,-0.09,-0.07,-0.08,0.84,0.86,0.85,-0.52,-0.51,-0.52,1.0,2.0,4.0
72.0,75.0,73.6,1.0,-0.19,-0.17,-0.18,0.09,0.13,0.12,-0.99,-0.96,-0.98,1.0,2.0,4.0
77.0,81.0,78.4,1.0,0.41,0.43,0.42,0.42,0.45,0.44,-0.8,-0.77,-0.79,1.0,2.0,4.0
64.0,64.0,64.0,1.0,-0.24,-0.22,-0.23,-0.19,-0.16,-0.18,-0.96,-0.94,-0.95,1.0,2.0,4.0
72.0,76.0,73.6,1.0,-0.17,-0.16,-0.16,0.12,0.14,0.13,-0.98,-0.96,-0.98,1.0,2.0,4.0
72.0,75.0,72.5,1.0,-0.18,-0.17,-0.18,0.1,0.13,0.11,-0.99,-0.97,-0.98,1.0,2.0,4.0
65.0,67.0,65.67,1.0,-0.21,-0.19,-0.2,-0.05,-0.02,-0.03,-0.98,-0.96,-0.98,1.0,3.0,4.0
64.0,68.0,66.17,1.0,-0.22,-0.2,-0.21,-0.0,0.03,0.01,-0.99,-0.96,-0.98,1.0,3.0,4.0
60.0,63.0,61.86,1.0,0.38,0.39,0.38,-0.92,-0.91,-0.92,-0.08,-0.07,-0.07,1.0,3.0,4.0
66.0,68.0,67.5,1.0,0.38,0.39,0.39,-0.92,-0.91,-0.92,-0.08,-0.06,-0.07,1.0,3.0,4.0
62.0,65.0,63.8,1.0,0.36,0.37,0.36,-0.93,-0.92,-0.93,0.0,0.01,0.01,1.0,3.0,4.0
63.0,64.0,63.17,1.0,0.39,0.4,0.4,-0.92,-0.91,-0.91,-0.07,-0.06,-0.06,1.0,3.0,4.0
64.0,68.0,66.33,1.0,-0.21,-0.19,-0.2,-0.06,-0.01,-0.03,-0.99,-0.96,-0.98,1.0,3.0,4.0
63.0,65.0,64.0,1.0,0.36,0.37,0.37,-0.93,-0.92,-0.93,0.01,0.02,0.01,1.0,3.0,4.0
62.0,66.0,64.33,1.01,-0.86,1.31,-0.01,-1.23,1.11,-0.12,-1.44,0.77,-0.64,1.0,3.0,4.0
62.0,64.0,63.0,1.0,0.35,0.37,0.37,-0.93,-0.85,-0.93,-0.01,0.02,0.01,1.0,3.0,4.0
62.0,71.0,65.67,1.0,-0.29,-0.27,-0.28,-0.46,-0.44,-0.45,-0.85,-0.83,-0.84,0.0,5.0,4.0
65.0,68.0,66.17,1.0,-0.28,-0.27,-0.27,-0.88,-0.86,-0.87,0.4,0.41,0.41,0.0,5.0,4.0
72.0,74.0,72.67,1.01,-0.64,0.7,-0.21,-0.95,0.26,-0.37,-1.26,0.73,-0.46,0.0,5.0,4.0
73.0,93.0,81.83,1.0,-0.17,-0.16,-0.17,-0.91,-0.9,-0.91,0.37,0.39,0.38,0.0,5.0,4.0
76.0,77.0,76.67,1.0,0.14,0.16,0.15,0.22,0.24,0.23,-0.97,-0.95,-0.96,0.0,5.0,4.0
71.0,76.0,73.5,1.0,0.17,0.18,0.18,0.29,0.31,0.3,-0.94,-0.93,-0.94,0.0,5.0,4.0
64.0,68.0,66.17,1.0,0.49,0.6,0.54,-0.03,0.19,0.11,-0.85,-0.78,-0.83,0.0,0.0,8.0
65.0,70.0,67.67,1.0,-0.15,0.7,0.18,-0.13,0.54,0.32,-1.14,-0.55,-0.87,0.0,0.0,8.0
64.0,65.0,64.5,1.0,0.46,0.48,0.47,0.3,0.31,0.31,-0.83,-0.81,-0.82,0.0,0.0,8.0
68.0,71.0,68.5,0.99,-0.57,-0.55,-0.56,-0.42,-0.39,-0.41,-0.72,-0.7,-0.71,0.0,0.0,8.0
63.0,64.0,63.2,1.0,0.47,0.49,0.47,0.29,0.32,0.3,-0.83,-0.81,-0.82,0.0,0.0,8.0
71.0,71.0,71.0,1.0,0.5,0.52,0.51,0.15,0.16,0.16,-0.85,-0.83,-0.84,1.0,1.0,8.0
66.0,66.0,66.0,1.0,0.5,0.52,0.51,0.15,0.16,0.16,-0.85,-0.83,-0.84,1.0,1.0,8.0
68.0,69.0,68.67,0.99,-0.87,-0.86,-0.86,-0.14,-0.12,-0.13,-0.48,-0.46,-0.48,1.0,1.0,8.0
62.0,67.0,63.83,1.0,-0.31,-0.31,-0.31,-0.79,-0.78,-0.79,0.52,0.53,0.53,1.0,2.0,8.0
69.0,71.0,70.17,1.0,0.6,0.61,0.6,0.48,0.5,0.49,-0.63,-0.62,-0.62,1.0,2.0,8.0
62.0,66.0,64.57,1.0,0.5,0.52,0.51,0.15,0.17,0.16,-0.85,-0.83,-0.84,1.0,2.0,8.0
66.0,70.0,68.0,1.0,0.6,0.61,0.6,0.48,0.5,0.49,-0.63,-0.62,-0.63,1.0,2.0,8.0
63.0,65.0,64.17,0.99,-0.46,-0.44,-0.45,0.31,0.33,0.32,-0.83,-0.82,-0.83,1.0,2.0,8.0
68.0,69.0,68.17,1.0,0.6,0.62,0.6,0.48,0.5,0.49,-0.63,-0.62,-0.63,1.0,2.0,8.0
63.0,65.0,64.17,0.99,-0.46,-0.44,-0.45,0.3,0.33,0.32,-0.83,-0.82,-0.83,1.0,2.0,8.0
63.0,65.0,63.83,1.0,0.7,0.71,0.7,-0.04,-0.03,-0.03,-0.71,-0.7,-0.7,1.0,3.0,8.0
62.0,63.0,62.4,1.0,0.54,0.55,0.55,0.14,0.16,0.15,-0.83,-0.82,-0.82,1.0,3.0,8.0
62.0,63.0,62.83,1.0,0.53,0.55,0.54,0.1,0.11,0.1,-0.84,-0.83,-0.83,1.0,3.0,8.0
62.0,64.0,63.5,1.0,0.53,0.55,0.54,0.1,0.11,0.1,-0.84,-0.82,-0.83,1.0,3.0,8.0
68.0,71.0,69.33,1.0,0.38,0.4,0.39,0.4,0.42,0.41,-0.83,-0.81,-0.82,0.0,5.0,8.0
85.0,97.0,90.83,1.0,0.32,0.33,0.33,0.47,0.49,0.48,-0.82,-0.8,-0.81,0.0,5.0,8.0
65.0,68.0,66.5,1.0,-0.32,-0.31,-0.32,-0.79,-0.78,-0.79,0.52,0.53,0.52,0.0,5.0,8.0
63.0,69.0,65.0,1.0,-0.32,-0.31,-0.31,-0.79,-0.78,-0.79,0.52,0.53,0.52,0.0,5.0,8.0
64.0,66.0,65.33,1.0,-0.33,-0.32,-0.32,-0.81,-0.8,-0.8,0.49,0.5,0.49,0.0,5.0,8.0
68.0,69.0,68.33,0.99,-0.87,-0.86,-0.86,-0.12,-0.12,-0.12,-0.49,-0.47,-0.48,0.0,5.0,8.0
63.0,68.0,64.67,1.0,-0.32,-0.31,-0.31,-0.79,-0.78,-0.79,0.52,0.53,0.52,0.0,5.0,8.0
59.0,59.0,59.0,0.99,-0.06,-0.06,-0.06,-0.36,-0.35,-0.35,-0.93,-0.92,-0.93,0.0,0.0,20.0
72.0,73.0,72.4,0.99,-0.13,-0.11,-0.12,-0.16,-0.12,-0.14,-0.99,-0.97,-0.98,0.0,0.0,20.0
73.0,76.0,74.33,0.99,-0.13,-0.12,-0.13,-0.4,-0.39,-0.39,-0.91,-0.9,-0.9,0.0,0.0,20.0
68.0,69.0,68.5,0.99,0.07,0.08,0.08,-0.57,-0.56,-0.57,-0.81,-0.81,-0.81,0.0,0.0,20.0
74.0,75.0,74.5,0.99,-0.13,-0.12,-0.13,-0.4,-0.39,-0.39,-0.91,-0.9,-0.9,0.0,0.0,20.0
64.0,68.0,65.2,0.99,-0.1,-0.09,-0.1,-0.4,-0.39,-0.39,-0.91,-0.9,-0.91,0.0,0.0,20.0
65.0,69.0,67.43,0.99,-0.1,-0.09,-0.09,-0.12,-0.12,-0.12,-0.99,-0.98,-0.98,0.0,0.0,20.0
59.0,60.0,59.86,0.99,-0.07,-0.06,-0.06,-0.36,-0.35,-0.35,-0.93,-0.92,-0.93,0.0,0.0,20.0
63.0,63.0,63.0,0.99,-0.06,-0.05,-0.06,-0.36,-0.35,-0.35,-0.93,-0.92,-0.93,0.0,0.0,20.0
72.0,75.0,73.2,1.0,-0.18,-0.17,-0.17,0.52,0.52,0.52,-0.84,-0.83,-0.83,1.0,1.0,20.0
65.0,66.0,65.33,0.99,-0.04,-0.04,-0.04,-0.38,-0.37,-0.38,-0.92,-0.91,-0.92,1.0,1.0,20.0
72.0,74.0,73.0,1.0,-0.17,-0.16,-0.17,0.47,0.48,0.47,-0.87,-0.86,-0.86,1.0,1.0,20.0
68.0,68.0,68.0,1.0,-0.18,-0.17,-0.17,0.51,0.52,0.51,-0.84,-0.83,-0.84,1.0,1.0,20.0
68.0,71.0,69.0,0.99,-0.04,-0.04,-0.04,-0.38,-0.37,-0.38,-0.92,-0.91,-0.92,1.0,1.0,20.0
67.0,68.0,67.67,0.99,-0.11,-0.1,-0.1,-0.21,-0.2,-0.2,-0.97,-0.96,-0.97,1.0,1.0,20.0
63.0,68.0,65.33,0.99,-0.1,-0.08,-0.09,-0.15,-0.11,-0.11,-1.0,-0.98,-0.98,1.0,1.0,20.0
67.0,68.0,67.8,0.99,-0.04,-0.04,-0.04,-0.38,-0.37,-0.38,-0.92,-0.91,-0.92,1.0,2.0,20.0
71.0,74.0,72.83,1.0,-0.12,-0.11,-0.12,0.24,0.24,0.24,-0.96,-0.96,-0.96,1.0,2.0,20.0
61.0,64.0,62.5,0.99,-0.05,-0.04,-0.04,-0.38,-0.37,-0.38,-0.92,-0.91,-0.92,1.0,3.0,20.0
61.0,61.0,61.0,0.99,-0.06,-0.06,-0.06,-0.36,-0.35,-0.36,-0.93,-0.92,-0.93,0.0,5.0,20.0
63.0,66.0,64.4,0.99,-0.11,-0.1,-0.11,-0.2,-0.19,-0.2,-0.97,-0.97,-0.97,0.0,5.0,20.0
65.0,66.0,65.17,0.99,-0.11,-0.09,-0.11,-0.24,-0.19,-0.2,-0.97,-0.96,-0.97,0.0,5.0,20.0
57.0,59.0,58.17,0.99,0.1,0.1,0.1,0.17,0.18,0.18,-0.98,-0.97,-0.97,0.0,0.0,16.0
62.0,64.0,63.0,1.0,-0.22,-0.21,-0.21,0.91,0.92,0.92,0.33,0.34,0.34,0.0,0.0,16.0
61.0,65.0,63.17,0.99,-0.26,-0.24,-0.25,-0.86,-0.85,-0.85,-0.45,-0.43,-0.44,0.0,0.0,16.0
54.0,59.0,56.67,1.0,-0.14,-0.13,-0.13,-0.96,-0.96,-0.96,-0.23,-0.22,-0.23,1.0,1.0,16.0
60.0,61.0,60.5,0.99,-0.12,-0.1,-0.11,-0.2,-0.18,-0.19,-0.97,-0.96,-0.97,1.0,1.0,16.0
59.0,62.0,60.33,0.99,0.1,0.1,0.1,0.17,0.18,0.18,-0.98,-0.97,-0.97,1.0,1.0,16.0
60.0,61.0,60.4,0.99,-0.05,-0.04,-0.04,-0.49,-0.48,-0.48,-0.87,-0.86,-0.87,1.0,2.0,16.0
51.0,56.0,53.2,0.99,0.08,0.09,0.08,0.55,0.55,0.55,-0.82,-0.81,-0.82,1.0,2.0,16.0
63.0,63.0,63.0,0.99,-0.34,-0.33,-0.34,0.51,0.52,0.51,-0.78,-0.77,-0.78,1.0,2.0,16.0
62.0,63.0,62.6,1.0,0.01,0.02,0.01,-1.01,-0.98,-1.0,0.07,0.08,0.07,1.0,2.0,16.0
61.0,63.0,62.17,0.99,-0.41,-0.4,-0.41,-0.36,-0.34,-0.35,-0.84,-0.83,-0.83,1.0,2.0,16.0
59.0,63.0,60.67,1.0,-0.14,-0.13,-0.14,-0.96,-0.95,-0.96,-0.24,-0.23,-0.24,1.0,2.0,16.0
62.0,63.0,62.4,1.0,-0.12,-0.11,-0.11,-0.97,-0.97,-0.97,-0.2,-0.2,-0.2,1.0,2.0,16.0
57.0,59.0,58.5,0.99,-0.13,-0.12,-0.12,-0.18,-0.16,-0.17,-0.97,-0.96,-0.97,1.0,2.0,16.0
62.0,64.0,63.0,0.99,-0.41,-0.4,-0.41,-0.36,-0.34,-0.35,-0.84,-0.83,-0.83,1.0,2.0,16.0
65.0,65.0,65.0,0.99,0.07,0.08,0.07,0.42,0.43,0.43,-0.9,-0.89,-0.89,1.0,3.0,16.0
64.0,65.0,64.83,0.99,-0.41,-0.4,-0.41,-0.36,-0.34,-0.35,-0.84,-0.83,-0.83,1.0,3.0,16.0
56.0,59.0,58.5,0.99,0.09,0.1,0.09,0.4,0.41,0.4,-0.91,-0.9,-0.9,1.0,3.0,16.0
63.0,65.0,64.0,0.99,-0.59,-0.58,-0.58,-0.02,-0.01,-0.02,-0.81,-0.8,-0.8,1.0,3.0,16.0
60.0,61.0,60.71,0.99,0.09,0.1,0.09,0.4,0.41,0.4,-0.91,-0.9,-0.9,1.0,3.0,16.0
57.0,59.0,57.83,0.99,0.07,0.08,0.07,0.43,0.44,0.43,-0.89,-0.88,-0.89,1.0,3.0,16.0
61.0,62.0,61.5,0.99,-0.59,-0.58,-0.59,-0.03,-0.01,-0.02,-0.81,-0.79,-0.8,1.0,3.0,16.0
59.0,63.0,61.33,0.99,0.09,0.1,0.09,0.4,0.42,0.4,-0.9,-0.9,-0.9,1.0,3.0,16.0
59.0,60.0,59.17,1.0,-0.13,-0.13,-0.13,-0.96,-0.96,-0.96,-0.23,-0.22,-0.23,0.0,5.0,16.0
59.0,61.0,59.83,1.0,-0.14,-0.13,-0.13,-0.96,-0.96,-0.96,-0.23,-0.22,-0.23,0.0,5.0,16.0
72.0,75.0,73.0,1.0,-0.54,-0.53,-0.53,0.02,0.03,0.02,-0.85,-0.85,-0.85,0.0,0.0,2.0
71.0,72.0,71.8,1.0,-0.5,-0.48,-0.49,0.85,0.95,0.87,-0.12,-0.05,-0.08,0.0,0.0,2.0
68.0,69.0,68.17,1.0,-0.48,-0.46,-0.47,0.16,0.18,0.17,-0.88,-0.86,-0.87,0.0,0.0,2.0
68.0,68.0,68.0,1.0,-0.39,-0.26,-0.3,0.75,0.97,0.93,-0.44,-0.16,-0.19,0.0,0.0,2.0
68.0,73.0,70.6,1.0,-0.46,-0.45,-0.45,-0.04,-0.01,-0.02,-0.9,-0.89,-0.89,0.0,0.0,2.0
56.0,61.0,58.6,1.0,-0.31,-0.3,-0.31,0.12,0.13,0.12,-0.95,-0.94,-0.95,0.0,0.0,2.0
74.0,75.0,74.67,1.0,-0.54,-0.53,-0.53,0.02,0.03,0.02,-0.85,-0.84,-0.85,0.0,0.0,2.0
71.0,72.0,71.67,1.0,-0.29,-0.28,-0.29,0.93,0.94,0.94,-0.19,-0.18,-0.18,1.0,1.0,2.0
69.0,76.0,73.5,1.0,-0.54,-0.53,-0.53,0.02,0.04,0.03,-0.85,-0.84,-0.85,1.0,1.0,2.0
66.0,70.0,67.8,1.0,-0.47,-0.46,-0.47,0.06,0.07,0.07,-0.89,-0.88,-0.88,1.0,1.0,2.0
69.0,76.0,71.8,1.0,-0.54,-0.53,-0.53,0.02,0.03,0.03,-0.85,-0.84,-0.85,1.0,1.0,2.0
69.0,70.0,69.83,1.0,-0.45,-0.44,-0.45,0.18,0.19,0.18,-0.88,-0.87,-0.88,1.0,1.0,2.0
71.0,76.0,74.0,1.0,-0.46,-0.45,-0.45,0.18,0.19,0.18,-0.88,-0.87,-0.87,1.0,1.0,2.0
68.0,69.0,68.5,1.0,-0.25,-0.23,-0.23,-0.65,-0.62,-0.63,0.71,0.75,0.74,1.0,2.0,2.0
70.0,75.0,73.83,1.0,-0.47,-0.46,-0.47,-0.02,-0.01,-0.02,-0.89,-0.88,-0.89,1.0,2.0,2.0
71.0,78.0,75.17,1.0,-0.48,-0.47,-0.48,-0.2,-0.19,-0.2,-0.86,-0.85,-0.86,1.0,2.0,2.0
68.0,74.0,71.57,1.0,-0.47,-0.46,-0.47,0.07,0.08,0.08,-0.89,-0.87,-0.88,1.0,2.0,2.0
66.0,68.0,66.67,1.0,-0.3,-0.29,-0.29,0.91,0.96,0.93,-0.22,-0.22,-0.22,1.0,2.0,2.0
68.0,69.0,68.67,1.0,-0.45,-0.43,-0.44,-0.03,-0.0,-0.02,-0.91,-0.89,-0.9,1.0,2.0,2.0
74.0,76.0,75.17,1.0,-0.47,-0.46,-0.47,-0.02,-0.01,-0.01,-0.89,-0.87,-0.89,1.0,2.0,2.0
69.0,72.0,70.2,1.0,-0.29,-0.28,-0.28,0.89,0.92,0.91,-0.3,-0.29,-0.3,1.0,3.0,2.0
68.0,71.0,69.4,1.0,-0.29,-0.27,-0.29,0.89,0.93,0.9,-0.34,-0.28,-0.32,1.0,3.0,2.0
71.0,73.0,71.5,1.0,-0.29,-0.28,-0.28,0.9,0.91,0.91,-0.31,-0.29,-0.3,1.0,3.0,2.0
68.0,72.0,70.14,1.0,-0.47,-0.46,-0.46,0.06,0.07,0.06,-0.89,-0.88,-0.89,0.0,5.0,2.0
67.0,67.0,67.0,1.0,-0.32,-0.31,-0.32,0.1,0.1,0.1,-0.95,-0.94,-0.95,0.0,5.0,2.0
69.0,71.0,69.5,1.0,-0.31,-0.3,-0.3,0.11,0.12,0.11,-0.95,-0.94,-0.95,0.0,5.0,2.0
73.0,74.0,73.17,1.0,-0.47,-0.46,-0.47,-0.02,-0.01,-0.01,-0.89,-0.87,-0.89,0.0,5.0,2.0
68.0,71.0,69.8,1.0,-0.39,-0.37,-0.39,0.4,0.43,0.42,-0.84,-0.82,-0.82,0.0,5.0,2.0
70.0,70.0,70.0,1.0,-0.45,-0.44,-0.45,0.0,0.03,0.01,-0.9,-0.89,-0.9,0.0,5.0,2.0
72.0,75.0,73.67,1.0,-0.48,-0.44,-0.47,0.11,0.14,0.13,-0.9,-0.86,-0.88,0.0,5.0,2.0
66.0,68.0,67.71,1.0,-0.4,-0.38,-0.39,0.41,0.43,0.42,-0.83,-0.81,-0.82,0.0,5.0,2.0
68.0,72.0,69.83,1.0,-0.46,-0.43,-0.45,-0.29,0.02,-0.0,-0.92,-0.89,-0.9,0.0,5.0,2.0
86.0,93.0,89.71,1.0,0.43,0.44,0.43,0.64,0.65,0.64,-0.64,-0.62,-0.63,0.0,0.0,24.0
88.0,88.0,88.0,0.99,-0.51,-0.5,-0.51,0.09,0.11,0.1,-0.85,-0.84,-0.84,0.0,0.0,24.0
73.0,76.0,74.17,1.0,0.03,0.04,0.04,0.36,0.37,0.36,-0.93,-0.92,-0.93,0.0,0.0,24.0
93.0,94.0,93.67,0.99,-0.14,-0.14,-0.14,0.61,0.61,0.61,-0.78,-0.77,-0.77,0.0,0.0,24.0
91.0,94.0,92.71,0.99,-0.14,-0.13,-0.13,0.61,0.61,0.61,-0.78,-0.77,-0.77,1.0,1.0,24.0
84.0,85.0,84.2,0.99,-0.2,-0.19,-0.19,0.47,0.6,0.5,-0.85,-0.79,-0.84,1.0,1.0,24.0
92.0,95.0,93.33,1.0,0.42,0.44,0.43,0.64,0.65,0.64,-0.64,-0.62,-0.63,1.0,2.0,24.0
83.0,92.0,88.14,1.0,0.55,0.57,0.56,0.3,0.32,0.31,-0.78,-0.76,-0.77,1.0,2.0,24.0
84.0,85.0,84.67,0.99,-0.19,-0.19,-0.19,0.5,0.51,0.5,-0.84,-0.83,-0.83,1.0,2.0,24.0
88.0,90.0,88.5,0.99,-0.19,-0.19,-0.19,0.5,0.51,0.5,-0.84,-0.83,-0.84,1.0,2.0,24.0
88.0,95.0,91.0,1.0,0.42,0.44,0.43,0.64,0.65,0.64,-0.64,-0.62,-0.63,1.0,2.0,24.0
92.0,98.0,94.0,1.0,0.43,0.44,0.43,0.64,0.65,0.64,-0.64,-0.62,-0.63,1.0,3.0,24.0
85.0,96.0,90.67,1.0,0.43,0.44,0.43,0.64,0.65,0.64,-0.64,-0.62,-0.63,1.0,3.0,24.0
89.0,93.0,90.71,1.0,0.56,0.58,0.57,0.34,0.36,0.35,-0.76,-0.72,-0.74,1.0,3.0,24.0
90.0,93.0,92.0,1.0,0.43,0.44,0.43,0.64,0.65,0.64,-0.65,-0.62,-0.63,1.0,3.0,24.0
87.0,93.0,90.33,1.0,0.55,0.57,0.56,0.31,0.32,0.32,-0.77,-0.75,-0.77,1.0,3.0,24.0
92.0,93.0,92.67,0.99,-0.15,-0.14,-0.15,0.6,0.61,0.61,-0.78,-0.77,-0.77,1.0,3.0,24.0
85.0,91.0,88.17,1.0,0.55,0.56,0.56,0.31,0.33,0.32,-0.78,-0.75,-0.76,1.0,3.0,24.0
87.0,90.0,88.0,1.0,0.54,0.56,0.55,0.3,0.32,0.31,-0.78,-0.76,-0.77,0.0,5.0,24.0
88.0,95.0,90.86,1.0,0.54,0.56,0.55,0.3,0.31,0.31,-0.79,-0.77,-0.77,0.0,5.0,24.0
74.0,82.0,79.0,0.99,-0.43,-0.41,-0.42,-0.81,-0.78,-0.8,-0.43,-0.41,-0.42,0.0,0.0,29.0
82.0,86.0,83.5,0.99,-0.43,-0.41,-0.42,-0.81,-0.78,-0.8,-0.43,-0.41,-0.42,0.0,0.0,29.0
65.0,68.0,67.2,0.99,-0.72,-0.7,-0.71,-0.1,-0.08,-0.09,-0.7,-0.68,-0.69,0.0,0.0,29.0
64.0,65.0,64.67,0.99,-0.65,-0.64,-0.65,-0.33,-0.32,-0.33,-0.69,-0.67,-0.68,0.0,0.0,29.0
65.0,76.0,69.29,1.0,-1.08,-0.76,-0.9,-0.52,-0.01,-0.3,-0.47,-0.11,-0.26,0.0,0.0,29.0
64.0,65.0,64.83,1.0,-0.71,0.91,-0.11,0.28,0.62,0.39,-1.04,-0.82,-0.91,0.0,0.0,29.0
65.0,67.0,66.0,0.99,-0.57,-0.57,-0.57,-0.46,-0.44,-0.45,-0.69,-0.67,-0.68,0.0,0.0,29.0
65.0,71.0,68.2,1.0,-0.08,-0.07,-0.07,0.59,0.6,0.6,-0.8,-0.79,-0.79,1.0,1.0,29.0
67.0,72.0,68.67,1.0,-0.05,-0.04,-0.05,0.62,0.64,0.63,-0.78,-0.77,-0.77,1.0,1.0,29.0
58.0,65.0,62.0,0.99,-0.58,-0.56,-0.57,-0.46,-0.44,-0.45,-0.69,-0.67,-0.68,1.0,1.0,29.0
57.0,92.0,78.4,0.99,-0.57,-0.57,-0.57,-0.46,-0.44,-0.45,-0.69,-0.67,-0.68,1.0,1.0,29.0
68.0,71.0,69.17,1.0,-0.17,-0.16,-0.16,-0.35,-0.34,-0.34,0.92,0.93,0.93,1.0,1.0,29.0
81.0,87.0,85.0,1.0,-0.39,-0.38,-0.39,0.44,0.45,0.44,-0.81,-0.8,-0.81,1.0,1.0,29.0
81.0,86.0,83.83,0.99,-0.43,-0.41,-0.42,-0.8,-0.78,-0.79,-0.43,-0.41,-0.42,1.0,1.0,29.0
68.0,74.0,71.0,1.0,-0.1,-0.07,-0.08,0.74,0.79,0.76,-0.66,-0.62,-0.64,1.0,1.0,29.0
76.0,83.0,79.67,1.0,-0.39,-0.38,-0.39,0.44,0.45,0.44,-0.81,-0.8,-0.8,1.0,1.0,29.0
71.0,77.0,73.67,0.99,-0.46,-0.44,-0.45,0.09,0.12,0.11,-0.89,-0.87,-0.88,1.0,1.0,29.0
82.0,85.0,83.17,0.99,-0.42,-0.4,-0.41,-0.81,-0.79,-0.8,-0.43,-0.41,-0.42,1.0,1.0,29.0
61.0,78.0,68.67,1.0,-0.08,-0.08,-0.08,0.74,0.75,0.74,-0.66,-0.65,-0.66,1.0,1.0,29.0
65.0,65.0,65.0,1.0,-0.08,-0.07,-0.07,0.59,0.6,0.59,-0.8,-0.79,-0.8,1.0,1.0,29.0
65.0,68.0,66.0,0.99,-0.65,-0.64,-0.64,-0.34,-0.32,-0.33,-0.69,-0.68,-0.68,1.0,1.0,29.0
65.0,74.0,70.17,1.0,-0.05,-0.04,-0.05,0.63,0.64,0.63,-0.77,-0.77,-0.77,1.0,1.0,29.0
65.0,69.0,67.6,1.0,-0.08,-0.07,-0.08,0.74,0.75,0.75,-0.66,-0.65,-0.66,1.0,1.0,29.0
67.0,67.0,67.0,0.99,-0.66,-0.64,-0.64,-0.34,-0.31,-0.33,-0.69,-0.67,-0.68,1.0,1.0,29.0
78.0,87.0,82.4,1.0,-0.08,-0.07,-0.07,0.59,0.6,0.6,-0.8,-0.79,-0.79,1.0,1.0,29.0
77.0,77.0,77.0,0.99,-0.66,-0.64,-0.65,-0.23,-0.21,-0.22,-0.73,-0.71,-0.72,1.0,2.0,29.0
74.0,76.0,74.67,1.0,-0.3,-0.28,-0.29,0.59,0.62,0.61,-0.75,-0.73,-0.74,1.0,2.0,29.0
81.0,86.0,83.67,1.0,-0.4,-0.38,-0.39,0.43,0.44,0.44,-0.81,-0.8,-0.81,1.0,2.0,29.0
74.0,77.0,75.83,0.99,-0.59,-0.58,-0.58,-0.61,-0.59,-0.6,-0.55,-0.53,-0.54,1.0,2.0,29.0
69.0,71.0,69.8,1.0,-0.15,-0.14,-0.14,-0.36,-0.35,-0.35,0.92,0.93,0.93,1.0,2.0,29.0
74.0,74.0,74.0,1.0,-0.11,-0.1,-0.1,0.69,0.7,0.69,-0.72,-0.7,-0.71,1.0,2.0,29.0
74.0,77.0,75.17,1.0,-0.71,0.91,-0.13,-0.93,1.2,0.47,-1.61,-0.28,-0.71,1.0,2.0,29.0
73.0,77.0,75.6,0.99,-0.69,-0.68,-0.69,-0.13,-0.11,-0.12,-0.71,-0.7,-0.71,1.0,3.0,29.0
76.0,77.0,76.8,0.99,-0.85,-0.01,-0.6,-1.04,-0.03,-0.26,-0.8,0.5,-0.52,1.0,3.0,29.0
77.0,85.0,81.17,1.0,-0.4,-0.39,-0.4,0.68,0.69,0.69,-0.61,-0.6,-0.6,1.0,3.0,29.0
74.0,78.0,76.67,0.99,-0.67,-0.65,-0.66,-0.23,-0.21,-0.22,-0.72,-0.71,-0.71,1.0,3.0,29.0
86.0,89.0,86.86,1.0,-0.42,-0.4,-0.41,0.76,0.8,0.79,-0.47,-0.44,-0.45,1.0,3.0,29.0
86.0,87.0,86.17,1.0,-0.88,-0.45,-0.53,-0.5,0.17,-0.29,-0.96,-0.31,-0.78,1.0,3.0,29.0
65.0,68.0,66.6,0.99,-0.46,-0.45,-0.46,-0.25,-0.23,-0.24,-0.86,-0.85,-0.85,0.0,5.0,29.0
71.0,86.0,79.5,1.0,-0.47,-0.46,-0.47,-0.26,-0.24,-0.25,-0.85,-0.83,-0.84,0.0,5.0,29.0
69.0,78.0,74.2,1.0,0.02,0.03,0.03,-0.22,-0.21,-0.22,0.97,0.98,0.98,0.0,5.0,29.0
73.0,76.0,74.0,1.0,-0.6,-0.06,-0.08,-1.06,-0.31,-0.34,-0.44,0.96,0.89,0.0,5.0,29.0
67.0,73.0,69.67,1.0,-0.17,-0.16,-0.17,0.49,0.5,0.5,0.85,0.86,0.86,0.0,5.0,29.0
67.0,68.0,67.83,1.01,-0.83,0.32,-0.23,-1.31,0.36,-0.7,-1.0,0.71,-0.12,0.0,5.0,29.0
