Min_hr,Max_hr,Mean_hr,Men_acc_sqrt,Min_acc_x,Max_acc_x,Mean_acc_x,Min_acc_y,Max_acc_y,Mean_acc_y,Min_acc_z,Max_acc_z,Mean_acc_z,Etiquetas binarias,Etiquetas multiclase,ID
66.0,72.0,68.86,1.0,-0.17,-0.17,-0.17,0.06,0.07,0.07,-0.99,-0.98,-0.99,0.0,5.0,0.0
61.0,61.0,61.0,1.0,0.05,0.05,0.05,0.34,0.35,0.34,-0.94,-0.94,-0.94,0.0,5.0,0.0
68.0,68.0,68.0,1.0,0.32,0.77,0.67,-0.65,0.08,-0.42,-0.99,-0.39,-0.58,0.0,0.0,0.0
68.0,70.0,68.5,1.0,-0.53,-0.52,-0.53,0.65,0.66,0.65,-0.55,-0.54,-0.54,0.0,5.0,0.0
70.0,72.0,71.2,1.0,-0.54,-0.53,-0.54,-0.33,-0.32,-0.33,-0.79,-0.78,-0.78,0.0,0.0,0.0
60.0,68.0,65.5,1.0,-0.26,-0.25,-0.25,-0.47,-0.47,-0.47,-0.85,-0.84,-0.85,0.0,0.0,0.0
61.0,64.0,62.33,1.0,0.41,0.42,0.42,-0.36,-0.35,-0.36,-0.85,-0.83,-0.84,0.0,0.0,0.0
63.0,68.0,65.83,1.0,0.1,0.1,0.1,0.22,0.22,0.22,-0.98,-0.97,-0.97,0.0,5.0,0.0
67.0,69.0,68.14,1.0,0.69,0.71,0.7,-0.61,-0.59,-0.6,-0.39,-0.38,-0.39,0.0,0.0,0.0
66.0,69.0,67.5,1.0,-0.27,-0.26,-0.27,-0.53,-0.52,-0.52,-0.82,-0.8,-0.81,0.0,0.0,0.0
65.0,66.0,65.8,1.0,0.09,0.1,0.1,0.2,0.25,0.23,-0.98,-0.95,-0.97,0.0,5.0,0.0
68.0,71.0,69.4,1.0,0.07,0.11,0.1,0.21,0.31,0.22,-1.01,-0.94,-0.97,0.0,5.0,0.0
66.0,68.0,67.43,1.0,-0.27,-0.26,-0.27,-0.53,-0.52,-0.53,-0.82,-0.8,-0.81,0.0,0.0,0.0
62.0,74.0,68.33,1.0,0.05,0.05,0.05,0.34,0.35,0.34,-0.94,-0.94,-0.94,0.0,5.0,0.0
68.0,69.0,68.6,1.0,0.08,0.11,0.09,0.22,0.23,0.22,-0.98,-0.97,-0.97,0.0,5.0,0.0
67.0,68.0,67.33,1.0,0.69,0.71,0.7,-0.61,-0.59,-0.6,-0.39,-0.38,-0.39,0.0,0.0,0.0
65.0,70.0,67.83,1.0,0.1,0.11,0.11,0.2,0.21,0.2,-0.98,-0.97,-0.98,0.0,5.0,0.0
62.0,66.0,63.5,1.0,-0.17,-0.17,-0.17,0.06,0.07,0.07,-0.99,-0.98,-0.99,0.0,5.0,0.0
68.0,69.0,68.5,1.0,0.0,0.01,0.0,0.05,0.06,0.05,-1.01,-1.0,-1.0,0.0,5.0,0.0
70.0,74.0,71.6,1.0,-0.17,-0.17,-0.17,0.07,0.07,0.07,-0.99,-0.98,-0.99,0.0,5.0,0.0
66.0,68.0,67.17,1.0,0.68,0.69,0.69,-0.5,-0.49,-0.5,-0.54,-0.53,-0.53,0.0,0.0,0.0
74.0,78.0,76.5,1.0,0.1,0.11,0.11,0.2,0.21,0.21,-0.98,-0.97,-0.97,0.0,5.0,0.0
63.0,64.0,63.17,1.0,0.05,0.05,0.05,0.35,0.35,0.35,-0.94,-0.93,-0.94,0.0,5.0,0.0
71.0,73.0,72.0,1.0,0.28,0.52,0.34,-0.51,-0.28,-0.34,-0.98,-0.64,-0.88,0.0,0.0,0.0
69.0,71.0,69.83,1.0,-0.53,-0.53,-0.53,0.65,0.66,0.65,-0.55,-0.54,-0.54,0.0,5.0,0.0
61.0,66.0,62.33,1.0,0.05,0.05,0.05,0.35,0.35,0.35,-0.94,-0.93,-0.94,0.0,5.0,0.0
61.0,61.0,61.0,1.0,0.05,0.05,0.05,0.34,0.35,0.34,-0.94,-0.94,-0.94,0.0,5.0,0.0
68.0,69.0,68.33,1.0,0.69,0.71,0.7,-0.61,-0.59,-0.6,-0.39,-0.38,-0.39,0.0,0.0,0.0
64.0,68.0,66.14,1.0,0.09,0.1,0.1,-0.06,-0.06,-0.06,-1.0,-0.99,-1.0,0.0,0.0,0.0
60.0,62.0,61.0,1.0,0.05,0.05,0.05,0.34,0.35,0.35,-0.94,-0.93,-0.94,0.0,5.0,0.0
64.0,71.0,67.0,1.0,0.05,0.05,0.05,0.34,0.35,0.34,-0.94,-0.94,-0.94,0.0,5.0,0.0
67.0,71.0,68.4,1.0,0.01,0.02,0.01,0.25,0.26,0.25,-0.97,-0.97,-0.97,0.0,5.0,0.0
72.0,75.0,73.17,1.0,0.31,0.32,0.32,-0.0,0.0,0.0,-0.95,-0.95,-0.95,0.0,5.0,0.0
59.0,60.0,59.33,1.0,0.05,0.05,0.05,0.34,0.35,0.34,-0.94,-0.94,-0.94,0.0,5.0,0.0
67.0,69.0,67.5,1.0,0.68,0.69,0.69,-0.5,-0.49,-0.5,-0.54,-0.53,-0.54,0.0,0.0,0.0
63.0,65.0,63.83,1.0,0.05,0.05,0.05,0.34,0.35,0.35,-0.94,-0.94,-0.94,0.0,5.0,0.0
60.0,61.0,60.33,1.0,0.05,0.05,0.05,0.34,0.35,0.34,-0.94,-0.94,-0.94,0.0,5.0,0.0
63.0,64.0,63.5,1.0,0.05,0.05,0.05,0.35,0.35,0.35,-0.94,-0.93,-0.94,0.0,5.0,0.0
59.0,64.0,60.5,1.0,0.41,0.42,0.41,-0.36,-0.35,-0.36,-0.85,-0.84,-0.84,0.0,0.0,0.0
62.0,66.0,64.0,1.0,-0.17,-0.17,-0.17,0.06,0.07,0.07,-0.99,-0.98,-0.99,0.0,5.0,0.0
61.0,63.0,62.0,1.0,0.05,0.05,0.05,0.34,0.35,0.35,-0.94,-0.94,-0.94,0.0,5.0,0.0
60.0,62.0,61.17,1.0,0.41,0.42,0.41,-0.36,-0.35,-0.36,-0.84,-0.84,-0.84,0.0,0.0,0.0
67.0,68.0,67.83,1.0,-0.28,-0.27,-0.27,0.34,0.34,0.34,-0.91,-0.9,-0.9,0.0,0.0,0.0
66.0,67.0,66.5,1.0,0.09,0.1,0.09,0.22,0.22,0.22,-0.98,-0.97,-0.97,0.0,5.0,0.0
65.0,70.0,66.67,1.0,-0.17,-0.17,-0.17,0.06,0.07,0.07,-1.0,-0.98,-0.99,0.0,5.0,0.0
70.0,74.0,71.67,1.0,0.06,0.12,0.09,0.19,0.3,0.22,-1.05,-0.89,-0.97,0.0,0.0,0.0
61.0,66.0,63.33,1.0,-0.26,-0.25,-0.25,-0.47,-0.47,-0.47,-0.86,-0.84,-0.85,0.0,0.0,0.0
64.0,69.0,66.57,1.0,-0.24,-0.24,-0.24,-0.17,-0.17,-0.17,-0.96,-0.95,-0.96,1.0,2.0,0.0
59.0,90.0,65.33,1.0,0.07,0.08,0.07,-0.02,-0.01,-0.01,-1.0,-0.99,-1.0,1.0,2.0,0.0
61.0,63.0,61.83,1.0,-0.27,-0.26,-0.26,0.3,0.3,0.3,-0.92,-0.92,-0.92,1.0,2.0,0.0
61.0,70.0,64.8,1.0,-0.26,-0.26,-0.26,0.3,0.3,0.3,-0.92,-0.91,-0.92,1.0,1.0,0.0
68.0,71.0,69.33,1.0,-0.27,-0.27,-0.27,0.32,0.34,0.33,-0.91,-0.9,-0.91,1.0,2.0,0.0
69.0,71.0,70.0,1.0,0.31,0.38,0.34,-0.35,-0.19,-0.3,-0.94,-0.87,-0.89,1.0,1.0,0.0
72.0,74.0,73.0,1.0,-0.24,-0.24,-0.24,-0.17,-0.16,-0.17,-0.96,-0.96,-0.96,1.0,2.0,0.0
65.0,68.0,66.5,1.0,0.08,0.08,0.08,0.02,0.03,0.02,-1.0,-1.0,-1.0,1.0,3.0,0.0
70.0,71.0,70.67,1.0,-0.0,0.01,0.0,-0.0,0.06,0.05,-1.0,-0.99,-1.0,1.0,2.0,0.0
65.0,68.0,66.67,1.0,0.32,0.33,0.32,-0.0,0.0,0.0,-0.95,-0.95,-0.95,1.0,2.0,0.0
68.0,68.0,68.0,1.0,-0.27,-0.26,-0.26,0.3,0.3,0.3,-0.92,-0.91,-0.92,1.0,2.0,0.0
63.0,67.0,65.5,1.0,0.07,0.07,0.07,0.03,0.03,0.03,-1.0,-1.0,-1.0,1.0,1.0,0.0
70.0,75.0,72.5,1.0,0.32,0.33,0.32,-0.0,0.0,0.0,-0.95,-0.94,-0.95,1.0,2.0,0.0
72.0,78.0,75.33,1.0,-0.24,-0.24,-0.24,-0.17,-0.16,-0.17,-0.96,-0.95,-0.96,1.0,2.0,0.0
48.0,50.0,49.2,0.99,-0.58,-0.57,-0.57,0.19,0.21,0.2,-0.79,-0.78,-0.79,0.0,0.0,10.0
85.0,86.0,85.43,0.99,-0.36,-0.35,-0.36,-0.09,-0.07,-0.08,-0.93,-0.92,-0.92,0.0,5.0,10.0
73.0,82.0,77.2,1.0,0.56,0.58,0.57,-0.0,0.01,0.0,-0.83,-0.81,-0.82,0.0,5.0,10.0
45.0,49.0,47.0,1.0,0.56,0.58,0.57,0.01,0.02,0.01,-0.82,-0.81,-0.82,0.0,5.0,10.0
45.0,47.0,46.2,1.0,0.16,0.17,0.16,-0.24,-0.22,-0.23,-0.96,-0.95,-0.96,0.0,5.0,10.0
48.0,49.0,48.8,0.99,-0.58,-0.57,-0.58,0.2,0.21,0.2,-0.79,-0.78,-0.78,0.0,0.0,10.0
48.0,49.0,48.83,0.99,-0.58,-0.57,-0.57,0.19,0.21,0.2,-0.79,-0.78,-0.79,0.0,0.0,10.0
45.0,49.0,47.14,1.0,0.56,0.57,0.57,-0.0,0.01,0.0,-0.83,-0.82,-0.82,0.0,5.0,10.0
46.0,46.0,46.0,1.0,0.18,0.19,0.18,-0.23,-0.21,-0.22,-0.96,-0.95,-0.96,0.0,5.0,10.0
44.0,46.0,45.4,0.99,-0.35,-0.35,-0.35,-0.09,-0.08,-0.09,-0.93,-0.92,-0.93,0.0,5.0,10.0
45.0,47.0,45.83,1.0,0.56,0.58,0.57,0.01,0.02,0.01,-0.82,-0.81,-0.82,0.0,5.0,10.0
75.0,81.0,79.33,1.0,0.56,0.58,0.57,-0.0,0.0,-0.0,-0.83,-0.81,-0.82,0.0,5.0,10.0
50.0,50.0,50.0,0.99,-0.58,-0.57,-0.57,0.2,0.21,0.2,-0.79,-0.78,-0.78,0.0,0.0,10.0
44.0,44.0,44.0,0.99,-0.36,-0.35,-0.35,-0.09,-0.07,-0.08,-0.93,-0.92,-0.92,0.0,5.0,10.0
51.0,53.0,51.8,1.0,-1.04,-0.08,-0.41,-1.04,0.42,-0.09,-1.69,0.13,-0.85,0.0,0.0,10.0
47.0,48.0,47.43,0.99,-0.43,-0.42,-0.43,0.01,0.03,0.02,-0.9,-0.89,-0.9,0.0,0.0,10.0
46.0,48.0,47.2,1.0,0.18,0.19,0.19,-0.23,-0.21,-0.22,-0.96,-0.95,-0.95,0.0,5.0,10.0
50.0,55.0,52.2,0.99,-0.47,-0.46,-0.47,0.0,0.02,0.01,-0.88,-0.87,-0.88,0.0,5.0,10.0
47.0,50.0,47.86,0.99,-0.36,-0.35,-0.35,-0.09,-0.07,-0.08,-0.93,-0.92,-0.93,0.0,5.0,10.0
52.0,54.0,53.4,0.99,-0.91,-0.44,-0.72,-0.7,0.54,-0.16,-1.02,0.01,-0.37,0.0,0.0,10.0
49.0,49.0,49.0,0.99,-0.58,-0.57,-0.57,0.2,0.21,0.2,-0.79,-0.78,-0.78,0.0,0.0,10.0
44.0,48.0,46.67,1.0,0.55,0.6,0.57,-0.08,0.07,0.01,-0.86,-0.78,-0.82,1.0,2.0,10.0
46.0,47.0,46.8,1.0,0.57,0.58,0.57,0.0,0.01,0.0,-0.82,-0.81,-0.82,1.0,2.0,10.0
44.0,46.0,45.0,1.0,0.21,0.22,0.21,-0.23,-0.21,-0.22,-0.95,-0.94,-0.95,1.0,2.0,10.0
46.0,47.0,46.5,1.0,0.42,0.44,0.43,-0.17,-0.15,-0.16,-0.9,-0.88,-0.89,1.0,1.0,10.0
46.0,47.0,46.83,1.0,0.42,0.43,0.42,-0.17,-0.16,-0.16,-0.89,-0.88,-0.89,1.0,2.0,10.0
47.0,49.0,47.5,1.0,0.57,0.58,0.58,0.0,0.01,0.01,-0.82,-0.81,-0.82,1.0,2.0,10.0
47.0,48.0,47.5,0.99,-0.48,-0.47,-0.47,-0.12,-0.09,-0.11,-0.87,-0.86,-0.87,1.0,2.0,10.0
43.0,49.0,46.33,0.99,-0.45,-0.44,-0.45,0.06,0.08,0.07,-0.89,-0.88,-0.88,1.0,3.0,10.0
47.0,50.0,49.33,0.99,-0.58,-0.57,-0.58,0.19,0.21,0.2,-0.79,-0.78,-0.78,1.0,2.0,10.0
49.0,52.0,49.83,1.0,0.42,0.43,0.42,-0.17,-0.16,-0.16,-0.89,-0.88,-0.89,1.0,2.0,10.0
43.0,45.0,43.83,0.99,-0.48,-0.47,-0.47,-0.12,-0.09,-0.11,-0.87,-0.86,-0.87,1.0,2.0,10.0
64.0,72.0,68.17,1.0,0.57,0.58,0.58,0.0,0.01,0.01,-0.82,-0.81,-0.82,1.0,3.0,10.0
47.0,49.0,48.17,1.0,-0.06,-0.06,-0.06,-0.64,-0.63,-0.64,0.77,0.77,0.77,1.0,2.0,10.0
49.0,50.0,49.33,0.99,-0.58,-0.57,-0.57,0.14,0.16,0.15,-0.8,-0.79,-0.8,1.0,2.0,10.0
48.0,49.0,48.2,0.99,-0.47,-0.46,-0.46,0.01,0.02,0.01,-0.88,-0.87,-0.88,1.0,3.0,10.0
46.0,46.0,46.0,1.0,0.2,0.22,0.21,-0.23,-0.21,-0.22,-0.96,-0.94,-0.95,1.0,2.0,10.0
47.0,48.0,47.83,0.99,-0.47,-0.46,-0.46,0.0,0.02,0.01,-0.88,-0.87,-0.88,1.0,3.0,10.0
47.0,48.0,47.57,1.0,-0.17,-0.13,-0.16,0.82,0.93,0.83,-0.54,-0.47,-0.53,1.0,2.0,10.0
49.0,49.0,49.0,1.0,-0.16,-0.13,-0.15,0.82,0.85,0.83,-0.54,-0.51,-0.54,1.0,2.0,10.0
47.0,48.0,47.6,0.99,-0.72,0.13,-0.46,-0.2,0.68,-0.09,-1.0,-0.7,-0.86,1.0,2.0,10.0
48.0,48.0,48.0,1.0,-0.06,-0.06,-0.06,-0.65,-0.64,-0.64,0.76,0.77,0.76,1.0,2.0,10.0
44.0,45.0,44.8,0.99,-0.45,-0.44,-0.45,0.06,0.08,0.07,-0.89,-0.88,-0.88,1.0,2.0,10.0
80.0,82.0,80.67,0.99,-0.53,-0.53,-0.53,-0.59,-0.58,-0.58,-0.61,-0.6,-0.61,0.0,5.0,22.0
78.0,91.0,85.67,0.99,-0.53,-0.52,-0.53,-0.59,-0.58,-0.59,-0.61,-0.6,-0.6,0.0,5.0,22.0
90.0,92.0,90.6,0.99,-0.4,-0.39,-0.39,-0.09,-0.08,-0.08,-0.91,-0.91,-0.91,0.0,0.0,22.0
79.0,81.0,80.29,1.01,-0.84,0.95,0.22,0.11,1.19,0.64,-1.05,0.68,-0.29,0.0,5.0,22.0
81.0,84.0,82.17,1.0,-0.6,-0.59,-0.6,-0.78,-0.77,-0.77,-0.2,-0.19,-0.19,0.0,5.0,22.0
90.0,92.0,91.2,0.99,-0.41,-0.39,-0.4,-0.08,-0.07,-0.08,-0.92,-0.9,-0.91,0.0,0.0,22.0
77.0,80.0,79.4,0.99,-0.54,-0.53,-0.53,-0.7,-0.69,-0.7,-0.47,-0.46,-0.46,0.0,5.0,22.0
77.0,91.0,83.4,1.0,-0.86,-0.52,-0.59,-0.85,-0.46,-0.68,-0.72,0.04,-0.37,0.0,5.0,22.0
86.0,87.0,86.29,1.0,-0.61,-0.6,-0.6,-0.77,-0.76,-0.77,-0.2,-0.18,-0.19,1.0,2.0,22.0
81.0,101.0,92.5,1.0,-0.64,-0.62,-0.63,-0.67,-0.67,-0.67,-0.39,-0.37,-0.38,1.0,2.0,22.0
79.0,81.0,80.0,0.99,-0.5,-0.49,-0.49,-0.73,-0.72,-0.72,-0.48,-0.47,-0.47,1.0,3.0,22.0
81.0,85.0,83.0,0.99,-0.65,-0.64,-0.65,-0.59,-0.58,-0.59,-0.49,-0.47,-0.48,1.0,2.0,22.0
78.0,85.0,81.6,1.0,-0.64,-0.62,-0.63,-0.68,-0.67,-0.67,-0.39,-0.37,-0.38,1.0,3.0,22.0
76.0,83.0,80.67,0.99,-0.55,-0.54,-0.54,-0.38,-0.37,-0.38,-0.75,-0.74,-0.75,1.0,2.0,22.0
73.0,79.0,75.5,0.99,-0.52,-0.51,-0.52,-0.68,-0.67,-0.68,-0.52,-0.51,-0.51,1.0,2.0,22.0
77.0,90.0,82.33,0.99,-0.53,-0.52,-0.53,-0.68,-0.67,-0.68,-0.51,-0.49,-0.5,1.0,1.0,22.0
85.0,88.0,86.17,1.0,-0.61,-0.59,-0.6,-0.77,-0.77,-0.77,-0.2,-0.19,-0.19,1.0,2.0,22.0
79.0,84.0,81.17,0.99,-0.51,-0.5,-0.5,-0.68,-0.67,-0.68,-0.53,-0.52,-0.52,1.0,3.0,22.0
75.0,78.0,75.67,0.99,-0.51,-0.5,-0.5,-0.68,-0.68,-0.68,-0.53,-0.51,-0.52,1.0,3.0,22.0
76.0,80.0,78.5,0.99,-0.5,-0.49,-0.49,-0.73,-0.72,-0.72,-0.47,-0.46,-0.47,1.0,3.0,22.0
78.0,82.0,80.2,0.99,-0.64,-0.53,-0.57,-0.72,-0.65,-0.68,-0.49,-0.29,-0.44,1.0,3.0,22.0
58.0,59.0,58.6,0.99,-0.04,-0.04,-0.04,0.45,0.45,0.45,-0.89,-0.88,-0.88,0.0,0.0,26.0
59.0,60.0,59.17,0.99,-0.04,-0.03,-0.03,0.51,0.51,0.51,-0.86,-0.85,-0.85,0.0,0.0,26.0
59.0,65.0,62.83,1.0,0.4,0.41,0.4,0.46,0.48,0.47,-0.8,-0.78,-0.79,0.0,0.0,26.0
59.0,63.0,60.33,1.0,0.4,0.4,0.4,0.45,0.47,0.46,-0.8,-0.78,-0.79,0.0,0.0,26.0
61.0,67.0,63.17,0.99,-0.01,-0.0,-0.0,0.3,0.31,0.3,-0.95,-0.94,-0.95,0.0,5.0,26.0
57.0,59.0,58.5,0.99,-0.04,-0.03,-0.03,0.51,0.52,0.51,-0.85,-0.84,-0.85,0.0,0.0,26.0
54.0,76.0,64.67,0.99,-0.04,-0.04,-0.04,0.44,0.45,0.45,-0.89,-0.88,-0.88,1.0,2.0,26.0
64.0,65.0,64.17,0.99,-0.05,-0.03,-0.04,0.46,0.47,0.47,-0.88,-0.87,-0.87,1.0,3.0,26.0
62.0,63.0,62.33,0.99,-0.02,-0.02,-0.02,-0.05,-0.04,-0.05,-0.99,-0.98,-0.99,1.0,2.0,26.0
61.0,63.0,62.17,0.99,0.09,0.09,0.09,0.33,0.34,0.33,-0.93,-0.93,-0.93,1.0,2.0,26.0
63.0,72.0,66.67,0.99,0.06,0.09,0.07,-0.26,-0.09,-0.15,-1.02,-0.95,-0.97,1.0,2.0,26.0
64.0,65.0,64.29,0.99,-0.0,0.0,-0.0,0.31,0.31,0.31,-0.95,-0.94,-0.94,1.0,2.0,26.0
64.0,66.0,65.2,0.99,-0.01,0.0,-0.0,0.36,0.37,0.37,-0.93,-0.92,-0.92,1.0,2.0,26.0
64.0,65.0,64.67,0.99,0.08,0.09,0.09,-0.16,-0.16,-0.16,-0.98,-0.97,-0.97,1.0,2.0,26.0
60.0,62.0,60.86,0.99,-0.04,-0.04,-0.04,0.45,0.45,0.45,-0.89,-0.88,-0.88,1.0,2.0,26.0
63.0,63.0,63.0,0.99,-0.15,-0.14,-0.14,0.26,0.27,0.27,-0.94,-0.94,-0.94,1.0,2.0,26.0
63.0,68.0,65.5,0.99,0.06,0.09,0.08,-0.16,-0.12,-0.15,-0.99,-0.96,-0.98,1.0,2.0,26.0
82.0,86.0,85.0,0.99,0.06,0.07,0.07,0.14,0.15,0.14,-0.98,-0.98,-0.98,1.0,2.0,26.0
57.0,59.0,58.57,0.99,-0.04,-0.03,-0.04,0.45,0.45,0.45,-0.89,-0.88,-0.88,1.0,1.0,26.0
61.0,75.0,69.5,0.99,0.03,0.04,0.04,0.62,0.63,0.62,-0.78,-0.77,-0.77,1.0,2.0,26.0
61.0,66.0,63.29,0.99,-0.02,-0.02,-0.02,-0.05,-0.04,-0.05,-0.99,-0.98,-0.99,1.0,2.0,26.0
52.0,52.0,52.0,1.0,-0.05,-0.04,-0.04,-0.58,-0.57,-0.57,-0.82,-0.81,-0.82,0.0,5.0,15.0
59.0,71.0,64.0,1.0,-0.24,-0.23,-0.24,-0.56,-0.55,-0.55,-0.8,-0.79,-0.8,0.0,0.0,15.0
58.0,62.0,59.33,1.0,-0.49,-0.48,-0.48,0.27,0.27,0.27,-0.84,-0.83,-0.83,0.0,5.0,15.0
56.0,59.0,57.33,1.0,-0.04,-0.03,-0.04,-0.58,-0.56,-0.57,-0.83,-0.81,-0.82,0.0,5.0,15.0
59.0,61.0,59.5,1.0,0.08,0.08,0.08,-0.48,-0.47,-0.48,-0.88,-0.87,-0.88,0.0,5.0,15.0
62.0,77.0,67.4,1.0,-0.24,-0.04,-0.2,-0.7,-0.57,-0.62,-0.81,-0.71,-0.76,0.0,0.0,15.0
73.0,75.0,73.6,1.0,-0.32,-0.29,-0.31,0.55,0.6,0.58,-0.78,-0.75,-0.76,0.0,0.0,15.0
61.0,62.0,61.2,1.0,-0.25,-0.24,-0.25,-0.56,-0.54,-0.55,-0.8,-0.79,-0.8,0.0,0.0,15.0
57.0,66.0,60.83,1.0,-0.61,-0.58,-0.59,0.15,0.18,0.17,-0.8,-0.77,-0.79,0.0,0.0,15.0
66.0,85.0,70.4,1.0,-0.14,-0.11,-0.13,-0.72,-0.7,-0.71,-0.7,-0.68,-0.69,0.0,0.0,15.0
56.0,58.0,57.0,1.0,0.08,0.09,0.08,-0.45,-0.44,-0.45,-0.89,-0.89,-0.89,0.0,5.0,15.0
60.0,64.0,61.0,1.0,-0.13,-0.12,-0.13,-0.71,-0.7,-0.71,-0.7,-0.69,-0.69,0.0,0.0,15.0
57.0,59.0,58.17,1.0,-0.23,-0.22,-0.23,-0.56,-0.54,-0.55,-0.81,-0.8,-0.8,0.0,0.0,15.0
54.0,55.0,54.4,1.0,0.08,0.09,0.08,-0.45,-0.44,-0.45,-0.89,-0.89,-0.89,0.0,5.0,15.0
62.0,67.0,63.5,1.0,-0.0,0.01,0.01,-0.34,-0.33,-0.34,-0.95,-0.94,-0.94,0.0,0.0,15.0
53.0,57.0,55.83,1.0,-0.6,-0.59,-0.59,0.16,0.18,0.17,-0.8,-0.78,-0.79,0.0,0.0,15.0
60.0,65.0,61.0,1.0,-0.25,-0.24,-0.24,-0.56,-0.54,-0.55,-0.8,-0.79,-0.8,0.0,0.0,15.0
51.0,57.0,53.0,1.0,0.01,0.02,0.01,0.96,0.97,0.97,0.24,0.26,0.25,1.0,2.0,15.0
52.0,55.0,53.57,1.0,-0.18,-0.17,-0.18,0.34,0.35,0.34,-0.93,-0.92,-0.92,1.0,3.0,15.0
69.0,75.0,70.57,1.0,-0.07,-0.05,-0.06,-0.66,-0.64,-0.65,-0.76,-0.75,-0.75,1.0,2.0,15.0
71.0,73.0,71.83,1.0,-0.17,-0.16,-0.16,0.98,0.99,0.99,-0.03,-0.02,-0.03,1.0,1.0,15.0
65.0,69.0,66.67,1.0,-0.12,-0.11,-0.11,-0.56,-0.55,-0.55,-0.83,-0.82,-0.82,1.0,3.0,15.0
66.0,68.0,66.8,1.0,-0.3,-0.28,-0.29,-0.19,-0.16,-0.18,-0.96,-0.93,-0.94,1.0,3.0,15.0
64.0,65.0,64.5,1.0,-0.12,-0.11,-0.11,-0.57,-0.55,-0.56,-0.83,-0.82,-0.82,1.0,3.0,15.0
63.0,73.0,70.17,1.0,-0.6,-0.58,-0.59,0.17,0.18,0.17,-0.8,-0.78,-0.79,1.0,1.0,15.0
76.0,83.0,79.4,1.0,-0.07,-0.06,-0.06,-0.66,-0.65,-0.65,-0.76,-0.75,-0.75,1.0,2.0,15.0
60.0,63.0,62.2,1.0,-0.0,0.02,0.0,-0.31,-0.27,-0.3,-0.97,-0.95,-0.95,1.0,2.0,15.0
66.0,73.0,70.17,1.0,-0.07,-0.06,-0.06,-0.51,-0.5,-0.5,-0.87,-0.86,-0.86,1.0,2.0,15.0
52.0,54.0,53.2,1.0,-0.18,-0.17,-0.18,0.34,0.35,0.35,-0.93,-0.92,-0.92,1.0,3.0,15.0
64.0,68.0,65.5,1.0,-0.3,-0.29,-0.29,-0.17,-0.17,-0.17,-0.95,-0.94,-0.94,1.0,3.0,15.0
53.0,57.0,54.83,1.0,-0.06,-0.05,-0.06,-0.21,-0.2,-0.21,-0.98,-0.97,-0.98,1.0,2.0,15.0
60.0,60.0,60.0,1.0,0.0,0.01,0.01,-0.3,-0.29,-0.29,-0.96,-0.95,-0.96,1.0,2.0,15.0
51.0,58.0,53.83,1.0,-0.06,-0.03,-0.06,-0.21,-0.2,-0.2,-0.99,-0.97,-0.98,1.0,2.0,15.0
68.0,70.0,68.71,1.0,-0.07,-0.06,-0.06,-0.66,-0.64,-0.65,-0.76,-0.75,-0.76,1.0,2.0,15.0
64.0,65.0,64.4,1.0,-0.29,-0.29,-0.29,-0.18,-0.17,-0.17,-0.95,-0.94,-0.94,1.0,3.0,15.0
53.0,62.0,56.33,0.99,-0.61,-0.5,-0.57,-0.76,-0.34,-0.56,-0.79,-0.28,-0.55,0.0,0.0,25.0
55.0,59.0,57.0,1.0,-0.59,-0.55,-0.56,-0.71,-0.68,-0.7,0.4,0.44,0.43,0.0,5.0,25.0
65.0,65.0,65.0,1.0,-0.39,-0.38,-0.39,-0.73,-0.72,-0.73,0.56,0.56,0.56,0.0,0.0,25.0
52.0,53.0,52.83,0.99,-0.81,0.33,-0.42,-0.94,0.98,-0.25,-1.18,1.52,-0.55,0.0,0.0,25.0
47.0,48.0,47.83,1.0,-0.48,-0.48,-0.48,-0.71,-0.71,-0.71,0.51,0.51,0.51,0.0,5.0,25.0
51.0,53.0,51.67,1.0,-0.49,-0.48,-0.48,-0.71,-0.7,-0.7,0.51,0.52,0.52,0.0,5.0,25.0
48.0,50.0,49.0,1.0,-0.13,-0.13,-0.13,-0.97,-0.97,-0.97,0.18,0.19,0.18,0.0,5.0,25.0
55.0,56.0,55.4,0.99,-0.4,-0.39,-0.39,0.11,0.13,0.12,-0.91,-0.9,-0.9,0.0,0.0,25.0
57.0,61.0,58.8,0.99,-0.44,-0.43,-0.43,-0.41,-0.38,-0.39,-0.81,-0.79,-0.8,0.0,5.0,25.0
60.0,62.0,61.17,1.0,-0.65,-0.64,-0.65,-0.56,-0.55,-0.56,0.5,0.51,0.51,0.0,0.0,25.0
50.0,53.0,51.2,0.99,-0.42,-0.41,-0.42,-0.38,-0.36,-0.37,-0.82,-0.81,-0.82,0.0,5.0,25.0
50.0,51.0,50.83,1.0,-0.45,-0.44,-0.45,-0.71,-0.7,-0.71,0.53,0.54,0.54,0.0,5.0,25.0
53.0,56.0,54.4,0.99,-0.36,-0.34,-0.35,0.45,0.54,0.5,-0.81,-0.75,-0.79,0.0,0.0,25.0
78.0,85.0,81.17,1.0,-0.14,-0.13,-0.13,-0.97,-0.97,-0.97,0.18,0.19,0.19,0.0,5.0,25.0
59.0,69.0,63.83,1.0,-0.82,-0.01,-0.38,-1.16,1.02,0.16,-1.0,1.18,-0.28,0.0,0.0,25.0
53.0,59.0,56.33,0.99,-0.42,-0.4,-0.41,-0.15,-0.13,-0.13,-0.91,-0.86,-0.89,0.0,5.0,25.0
50.0,54.0,52.0,1.0,-0.45,-0.45,-0.45,-0.73,-0.73,-0.73,0.5,0.51,0.51,0.0,5.0,25.0
60.0,65.0,62.86,0.99,-0.29,-0.28,-0.29,-0.04,-0.02,-0.02,-0.95,-0.95,-0.95,0.0,5.0,25.0
54.0,55.0,54.83,0.99,-0.38,-0.36,-0.37,0.25,0.3,0.28,-0.91,-0.86,-0.88,0.0,0.0,25.0
59.0,60.0,59.5,0.99,-0.32,-0.31,-0.32,0.16,0.17,0.17,-0.93,-0.92,-0.93,0.0,0.0,25.0
51.0,58.0,52.6,0.99,-0.57,-0.56,-0.57,-0.72,-0.71,-0.71,0.39,0.4,0.4,0.0,5.0,25.0
53.0,56.0,54.17,0.99,-0.44,-0.43,-0.43,-0.4,-0.38,-0.39,-0.81,-0.79,-0.8,0.0,5.0,25.0
51.0,52.0,51.33,0.99,-0.35,-0.32,-0.33,0.24,0.26,0.25,-0.91,-0.89,-0.9,0.0,0.0,25.0
50.0,51.0,50.17,1.0,-0.46,-0.45,-0.46,-0.76,-0.76,-0.76,0.44,0.45,0.45,0.0,5.0,25.0
48.0,50.0,49.2,1.0,-0.1,-0.09,-0.09,0.15,0.17,0.16,-0.98,-0.97,-0.98,0.0,5.0,25.0
50.0,51.0,50.17,1.0,-0.47,-0.46,-0.46,-0.76,-0.75,-0.75,0.45,0.46,0.45,0.0,5.0,25.0
61.0,64.0,62.17,1.0,-0.57,-0.56,-0.56,-0.7,-0.7,-0.7,0.43,0.43,0.43,0.0,5.0,25.0
49.0,50.0,49.83,1.0,-0.13,-0.13,-0.13,-0.97,-0.97,-0.97,0.18,0.19,0.18,0.0,5.0,25.0
50.0,50.0,50.0,0.99,-0.34,-0.33,-0.33,0.28,0.29,0.28,-0.89,-0.89,-0.89,1.0,2.0,25.0
50.0,51.0,50.2,0.99,-0.15,-0.14,-0.14,-0.0,0.01,-0.0,-0.99,-0.98,-0.98,1.0,2.0,25.0
52.0,52.0,52.0,0.99,-0.34,-0.33,-0.33,0.28,0.29,0.28,-0.9,-0.89,-0.89,1.0,2.0,25.0
55.0,56.0,55.83,1.0,-0.49,-0.49,-0.49,-0.71,-0.7,-0.7,0.5,0.51,0.51,1.0,2.0,25.0
50.0,51.0,50.8,1.0,-0.1,-0.09,-0.09,0.17,0.19,0.18,-0.98,-0.97,-0.97,1.0,2.0,25.0
52.0,55.0,53.0,0.99,-0.33,-0.33,-0.33,0.26,0.27,0.27,-0.9,-0.89,-0.9,1.0,2.0,25.0
61.0,62.0,61.75,1.0,-0.65,-0.65,-0.65,-0.56,-0.55,-0.56,0.5,0.51,0.51,1.0,1.0,25.0
53.0,54.0,53.2,0.99,-0.09,-0.08,-0.08,-0.29,-0.28,-0.28,-0.96,-0.95,-0.95,1.0,2.0,25.0
61.0,61.0,61.0,0.99,-0.18,-0.17,-0.17,0.24,0.26,0.25,-0.95,-0.94,-0.95,1.0,1.0,25.0
59.0,76.0,65.5,1.0,-0.14,-0.13,-0.13,-0.97,-0.97,-0.97,0.19,0.2,0.19,1.0,2.0,25.0
62.0,64.0,63.17,0.99,-0.17,-0.16,-0.17,0.21,0.23,0.22,-0.96,-0.95,-0.95,1.0,2.0,25.0
58.0,60.0,58.83,1.0,-0.39,-0.38,-0.39,-0.73,-0.72,-0.73,0.56,0.56,0.56,1.0,3.0,25.0
54.0,57.0,55.83,0.99,-0.33,-0.32,-0.32,0.34,0.36,0.35,-0.88,-0.87,-0.87,1.0,3.0,25.0
53.0,57.0,54.86,0.99,-0.42,-0.41,-0.42,-0.09,-0.08,-0.09,-0.9,-0.89,-0.9,1.0,2.0,25.0
51.0,55.0,52.0,1.0,-0.45,-0.44,-0.45,-0.72,-0.72,-0.72,0.52,0.53,0.52,1.0,1.0,25.0
64.0,68.0,65.33,0.99,-0.33,-0.32,-0.32,0.29,0.3,0.3,-0.9,-0.89,-0.89,1.0,2.0,25.0
58.0,59.0,58.33,0.99,-0.33,-0.32,-0.33,0.29,0.31,0.3,-0.89,-0.88,-0.89,1.0,3.0,25.0
50.0,50.0,50.0,1.02,-1.0,1.38,0.22,-0.18,1.54,0.56,-0.94,0.47,-0.2,1.0,2.0,25.0
54.0,58.0,57.0,0.99,-0.34,-0.33,-0.33,0.28,0.29,0.28,-0.9,-0.89,-0.89,1.0,2.0,25.0
66.0,68.0,67.0,1.0,0.34,0.35,0.35,-0.51,-0.51,-0.51,0.78,0.79,0.79,0.0,5.0,18.0
77.0,84.0,79.43,1.0,0.36,0.36,0.36,-0.9,-0.89,-0.9,0.26,0.27,0.26,0.0,5.0,18.0
70.0,73.0,71.86,1.0,0.57,0.58,0.57,-0.41,-0.4,-0.4,-0.72,-0.71,-0.72,0.0,5.0,18.0
86.0,86.0,86.0,1.0,0.25,0.25,0.25,-0.73,-0.72,-0.73,-0.65,-0.64,-0.65,0.0,5.0,18.0
83.0,84.0,83.5,1.0,0.09,0.1,0.09,-0.66,-0.65,-0.66,-0.76,-0.75,-0.75,0.0,5.0,18.0
69.0,71.0,69.6,1.0,0.55,0.56,0.56,-0.36,-0.35,-0.36,-0.76,-0.75,-0.75,0.0,5.0,18.0
79.0,81.0,80.0,1.0,0.36,0.36,0.36,-0.9,-0.9,-0.9,0.25,0.27,0.26,0.0,5.0,18.0
81.0,83.0,81.83,1.0,0.25,0.26,0.25,-0.73,-0.72,-0.73,-0.65,-0.64,-0.64,0.0,5.0,18.0
82.0,86.0,82.83,1.0,0.25,0.26,0.25,-0.73,-0.72,-0.73,-0.65,-0.64,-0.64,0.0,5.0,18.0
78.0,83.0,81.17,1.0,0.36,0.36,0.36,-0.9,-0.89,-0.9,0.26,0.27,0.26,0.0,5.0,18.0
82.0,84.0,83.0,1.0,0.25,0.26,0.25,-0.73,-0.72,-0.73,-0.65,-0.64,-0.64,0.0,5.0,18.0
85.0,110.0,95.0,1.0,0.25,0.25,0.25,-0.73,-0.72,-0.73,-0.65,-0.64,-0.64,0.0,5.0,18.0
82.0,86.0,84.17,1.0,0.09,0.1,0.1,-0.67,-0.66,-0.66,-0.75,-0.74,-0.75,0.0,5.0,18.0
84.0,87.0,85.33,1.0,0.21,0.22,0.21,0.41,0.42,0.42,-0.89,-0.88,-0.88,0.0,5.0,18.0
77.0,86.0,80.4,1.0,0.1,0.1,0.1,-0.67,-0.66,-0.66,-0.75,-0.74,-0.75,0.0,5.0,18.0
84.0,86.0,85.6,1.0,0.26,0.26,0.26,-0.73,-0.73,-0.73,-0.64,-0.63,-0.64,1.0,2.0,18.0
79.0,82.0,80.17,1.0,0.25,0.26,0.26,-0.8,-0.79,-0.8,-0.56,-0.55,-0.55,1.0,3.0,18.0
83.0,86.0,84.8,1.0,0.26,0.27,0.27,-0.74,-0.73,-0.74,-0.63,-0.62,-0.62,1.0,3.0,18.0
72.0,81.0,74.67,1.0,0.35,0.36,0.36,-0.51,-0.5,-0.5,0.78,0.79,0.79,1.0,2.0,18.0
84.0,86.0,85.0,1.0,0.34,0.34,0.34,-0.92,-0.92,-0.92,0.19,0.2,0.2,1.0,2.0,18.0
84.0,85.0,84.33,1.0,0.26,0.27,0.27,-0.74,-0.73,-0.74,-0.63,-0.62,-0.62,1.0,3.0,18.0
74.0,78.0,75.83,1.0,0.35,0.36,0.35,-0.51,-0.5,-0.5,0.78,0.79,0.79,1.0,3.0,18.0
90.0,101.0,98.4,1.01,-0.16,1.27,0.46,-1.26,0.41,-0.66,-0.93,0.79,-0.0,1.0,1.0,18.0
81.0,85.0,82.8,1.0,0.34,0.34,0.34,-0.93,-0.92,-0.92,0.19,0.2,0.2,1.0,3.0,18.0
85.0,86.0,85.2,1.0,-0.12,0.38,0.23,-0.87,0.34,-0.65,-1.05,-0.39,-0.64,1.0,3.0,18.0
75.0,80.0,78.6,1.0,0.35,0.36,0.36,-0.51,-0.5,-0.5,0.78,0.79,0.79,1.0,3.0,18.0
79.0,83.0,81.67,1.0,0.36,0.36,0.36,-0.51,-0.5,-0.5,0.78,0.79,0.78,1.0,2.0,18.0
92.0,96.0,94.67,1.0,0.05,0.79,0.26,-0.94,-0.69,-0.85,-0.28,0.55,0.41,1.0,2.0,18.0
70.0,72.0,70.8,1.0,0.35,0.35,0.35,-0.51,-0.5,-0.51,0.78,0.79,0.79,1.0,1.0,18.0
87.0,87.0,87.0,1.0,0.61,0.61,0.61,-0.67,-0.67,-0.67,0.42,0.43,0.43,1.0,2.0,18.0
75.0,80.0,77.0,1.0,0.35,0.36,0.35,-0.51,-0.5,-0.5,0.78,0.79,0.79,1.0,3.0,18.0
83.0,85.0,84.33,1.0,0.34,0.34,0.34,-0.93,-0.92,-0.92,0.19,0.2,0.2,1.0,3.0,18.0
86.0,87.0,86.5,1.0,0.61,0.78,0.62,-0.72,-0.44,-0.65,0.15,0.71,0.43,1.0,2.0,18.0
71.0,77.0,74.0,1.0,0.35,0.35,0.35,-0.51,-0.5,-0.5,0.79,0.79,0.79,1.0,3.0,18.0
59.0,60.0,59.33,1.0,-0.93,0.27,-0.36,-0.84,0.15,-0.28,-1.27,-0.43,-0.84,0.0,0.0,17.0
65.0,66.0,65.2,0.99,-0.3,-0.29,-0.3,0.2,0.22,0.21,-0.93,-0.92,-0.92,0.0,0.0,17.0
60.0,62.0,61.0,0.99,-0.28,-0.27,-0.27,0.22,0.23,0.23,-0.93,-0.92,-0.93,0.0,0.0,17.0
59.0,62.0,60.0,0.99,-0.28,-0.27,-0.27,-0.45,-0.43,-0.44,-0.85,-0.84,-0.85,0.0,5.0,17.0
62.0,64.0,63.0,0.99,-0.3,-0.29,-0.3,0.21,0.22,0.21,-0.93,-0.91,-0.92,0.0,0.0,17.0
61.0,64.0,63.33,0.99,-0.49,-0.44,-0.47,-0.39,-0.32,-0.34,-0.82,-0.79,-0.81,0.0,0.0,17.0
60.0,62.0,60.83,0.99,-0.26,-0.25,-0.25,0.27,0.28,0.27,-0.93,-0.92,-0.92,0.0,0.0,17.0
62.0,63.0,62.29,0.99,-0.28,-0.26,-0.27,-0.45,-0.43,-0.44,-0.85,-0.84,-0.85,0.0,5.0,17.0
69.0,75.0,71.0,1.0,0.49,0.5,0.49,0.11,0.12,0.12,-0.86,-0.85,-0.86,1.0,2.0,17.0
58.0,61.0,59.17,0.99,-0.25,-0.23,-0.24,-0.62,-0.59,-0.6,-0.76,-0.74,-0.75,1.0,2.0,17.0
62.0,64.0,62.8,0.99,-0.39,-0.37,-0.38,0.35,0.36,0.35,-0.86,-0.84,-0.85,1.0,3.0,17.0
61.0,72.0,69.2,1.01,-0.56,-0.08,-0.16,-1.75,0.29,0.03,-1.29,0.19,-0.91,1.0,3.0,17.0
61.0,62.0,61.8,0.99,-0.28,-0.27,-0.27,-0.45,-0.43,-0.44,-0.85,-0.84,-0.85,1.0,2.0,17.0
56.0,57.0,56.17,0.99,-0.31,-0.29,-0.3,-0.14,-0.13,-0.14,-0.95,-0.93,-0.94,1.0,2.0,17.0
61.0,67.0,65.29,0.99,-0.14,-0.13,-0.13,0.15,0.16,0.15,-0.98,-0.97,-0.97,1.0,3.0,17.0
65.0,67.0,65.83,0.99,-0.5,-0.05,-0.32,-0.63,0.74,0.0,-0.99,-0.7,-0.83,1.0,2.0,17.0
61.0,65.0,63.0,0.99,-0.28,-0.26,-0.27,-0.45,-0.44,-0.45,-0.85,-0.83,-0.84,1.0,3.0,17.0
73.0,92.0,83.5,0.99,-0.22,-0.21,-0.22,-0.26,-0.24,-0.25,-0.94,-0.93,-0.94,1.0,3.0,17.0
65.0,66.0,65.17,0.99,-0.3,-0.29,-0.3,0.21,0.22,0.22,-0.93,-0.92,-0.92,1.0,2.0,17.0
61.0,63.0,62.0,0.99,-0.28,-0.27,-0.27,-0.45,-0.43,-0.44,-0.85,-0.84,-0.85,1.0,2.0,17.0
62.0,79.0,67.2,0.99,-0.3,-0.28,-0.29,-0.14,-0.13,-0.14,-0.95,-0.93,-0.94,1.0,2.0,17.0
62.0,63.0,62.14,0.99,-0.28,-0.26,-0.27,-0.45,-0.43,-0.44,-0.85,-0.84,-0.85,1.0,3.0,17.0
67.0,74.0,70.43,1.0,0.49,0.5,0.5,0.11,0.12,0.12,-0.86,-0.85,-0.86,1.0,2.0,17.0
65.0,66.0,65.4,0.99,-0.28,-0.26,-0.27,-0.45,-0.44,-0.44,-0.85,-0.83,-0.84,1.0,3.0,17.0
54.0,57.0,54.83,0.99,-0.41,-0.4,-0.41,-0.55,-0.53,-0.54,-0.73,-0.72,-0.73,1.0,2.0,17.0
66.0,66.0,66.0,1.0,-0.32,-0.3,-0.31,0.07,0.12,0.09,-0.96,-0.93,-0.94,0.0,5.0,21.0
66.0,66.0,66.0,1.0,-0.45,-0.44,-0.44,0.2,0.21,0.2,-0.88,-0.87,-0.87,0.0,5.0,21.0
60.0,64.0,61.83,1.0,-0.33,-0.31,-0.32,-0.1,-0.08,-0.09,-0.95,-0.93,-0.94,0.0,5.0,21.0
62.0,70.0,65.5,1.0,-0.33,-0.32,-0.32,0.1,0.12,0.11,-0.95,-0.93,-0.94,0.0,5.0,21.0
65.0,68.0,66.5,1.0,-0.3,-0.28,-0.28,0.12,0.15,0.13,-0.95,-0.94,-0.95,0.0,5.0,21.0
64.0,66.0,65.6,1.0,-0.48,-0.46,-0.47,-0.48,-0.46,-0.47,-0.76,-0.73,-0.74,0.0,5.0,21.0
59.0,62.0,59.67,1.0,-0.32,-0.31,-0.32,-0.1,-0.07,-0.09,-0.96,-0.93,-0.94,0.0,5.0,21.0
66.0,68.0,67.0,1.0,-0.26,-0.23,-0.25,-0.05,0.2,0.03,-1.09,-0.96,-0.97,0.0,5.0,21.0
64.0,65.0,64.6,1.0,-0.31,-0.29,-0.3,-0.14,-0.12,-0.13,-0.96,-0.93,-0.94,0.0,5.0,21.0
72.0,74.0,72.6,1.0,-0.31,-0.29,-0.3,-0.54,-0.52,-0.53,-0.8,-0.77,-0.79,0.0,0.0,21.0
63.0,70.0,66.0,1.0,-0.72,0.26,-0.3,-0.99,-0.17,-0.43,-1.11,-0.11,-0.82,0.0,5.0,21.0
66.0,73.0,69.8,1.0,-0.33,-0.31,-0.32,-0.13,-0.1,-0.11,-0.95,-0.93,-0.94,0.0,5.0,21.0
64.0,66.0,64.83,1.0,-0.33,-0.31,-0.32,-0.42,-0.31,-0.38,-0.88,-0.85,-0.87,0.0,5.0,21.0
64.0,73.0,68.0,1.0,-0.5,-0.39,-0.44,-0.54,-0.41,-0.47,-0.87,-0.73,-0.76,0.0,5.0,21.0
64.0,67.0,65.17,1.0,-0.36,-0.3,-0.34,-0.47,-0.38,-0.43,-0.88,-0.81,-0.83,0.0,5.0,21.0
71.0,77.0,75.2,1.0,-0.44,-0.44,-0.44,0.2,0.21,0.2,-0.88,-0.87,-0.87,0.0,5.0,21.0
59.0,59.0,59.0,1.0,-0.36,-0.34,-0.35,0.1,0.13,0.11,-0.94,-0.92,-0.93,0.0,5.0,21.0
62.0,65.0,63.83,1.0,-0.29,-0.27,-0.28,0.15,0.16,0.16,-0.95,-0.94,-0.95,0.0,5.0,21.0
63.0,67.0,64.8,1.0,-0.37,-0.34,-0.36,0.25,0.31,0.28,-0.9,-0.85,-0.89,0.0,5.0,21.0
67.0,68.0,67.5,1.0,-0.41,-0.4,-0.4,-0.18,-0.17,-0.17,-0.9,-0.89,-0.9,0.0,5.0,21.0
60.0,66.0,63.4,1.0,-0.42,-0.14,-0.26,-0.15,0.89,0.11,-0.97,-0.4,-0.93,0.0,5.0,21.0
60.0,63.0,61.0,1.0,-0.51,-0.22,-0.32,-0.08,0.27,0.12,-0.98,-0.79,-0.93,1.0,2.0,21.0
62.0,62.0,62.0,1.0,-0.34,-0.32,-0.32,0.14,0.16,0.14,-0.94,-0.93,-0.93,1.0,2.0,21.0
61.0,64.0,62.67,1.0,-0.23,-0.22,-0.22,0.15,0.16,0.16,-0.96,-0.96,-0.96,1.0,2.0,21.0
62.0,63.0,62.17,1.0,-0.25,-0.22,-0.22,0.14,0.17,0.15,-0.99,-0.95,-0.96,1.0,2.0,21.0
63.0,64.0,63.33,1.0,-0.7,-0.68,-0.69,-0.32,-0.26,-0.28,-0.68,-0.64,-0.66,1.0,1.0,21.0
61.0,62.0,61.5,1.0,-0.33,-0.31,-0.32,-0.16,-0.14,-0.15,-0.95,-0.92,-0.93,1.0,2.0,21.0
62.0,64.0,63.33,1.0,-0.28,-0.26,-0.27,0.15,0.35,0.19,-0.95,-0.92,-0.94,1.0,2.0,21.0
65.0,66.0,65.67,1.0,-0.41,-0.4,-0.4,0.12,0.14,0.13,-0.91,-0.9,-0.9,1.0,1.0,21.0
67.0,67.0,67.0,1.0,-0.27,-0.26,-0.27,-0.32,-0.3,-0.31,-0.92,-0.9,-0.91,1.0,2.0,21.0
61.0,64.0,62.67,1.0,-0.33,-0.32,-0.32,-0.23,-0.21,-0.22,-0.93,-0.9,-0.92,1.0,2.0,21.0
66.0,68.0,67.17,1.0,0.1,0.11,0.1,-0.58,-0.57,-0.58,0.81,0.82,0.81,1.0,2.0,21.0
63.0,64.0,63.5,1.0,-0.45,-0.44,-0.45,0.5,0.51,0.51,-0.74,-0.73,-0.73,1.0,2.0,21.0
66.0,67.0,66.33,1.0,-0.38,-0.37,-0.37,-0.01,0.01,0.0,-0.94,-0.92,-0.93,1.0,2.0,21.0
62.0,69.0,66.6,1.01,-0.89,-0.07,-0.45,-0.32,1.15,0.53,-1.19,-0.01,-0.58,1.0,2.0,21.0
69.0,75.0,72.6,1.0,-0.67,0.07,-0.37,-0.44,0.86,0.17,-1.13,-0.35,-0.87,1.0,3.0,21.0
64.0,65.0,64.5,1.0,-0.29,-0.27,-0.28,-0.34,-0.29,-0.33,-0.91,-0.89,-0.9,1.0,2.0,21.0
68.0,69.0,68.5,1.0,-0.42,-0.3,-0.31,-0.77,-0.57,-0.59,-0.77,-0.45,-0.74,1.0,2.0,21.0
62.0,62.0,62.0,1.0,-0.56,-0.51,-0.53,0.16,0.28,0.22,-0.84,-0.8,-0.82,1.0,2.0,21.0
63.0,64.0,63.4,1.0,-0.69,-0.29,-0.44,-0.54,0.81,0.08,-0.89,-0.4,-0.77,1.0,2.0,21.0
66.0,70.0,67.8,1.0,-0.28,-0.26,-0.27,-0.32,-0.3,-0.31,-0.92,-0.9,-0.91,1.0,2.0,21.0
63.0,64.0,63.67,1.0,-0.3,-0.29,-0.29,-0.28,-0.22,-0.24,-0.94,-0.91,-0.92,1.0,1.0,21.0
60.0,62.0,60.8,1.0,-0.5,-0.49,-0.49,0.31,0.35,0.33,-0.81,-0.8,-0.8,1.0,2.0,21.0
62.0,63.0,62.5,1.0,-0.3,-0.21,-0.27,-0.0,0.24,0.12,-0.98,-0.94,-0.95,1.0,1.0,21.0
64.0,67.0,65.33,1.0,-0.33,-0.31,-0.32,-0.16,-0.14,-0.15,-0.94,-0.93,-0.93,1.0,2.0,21.0
51.0,53.0,52.5,1.0,-0.67,-0.66,-0.66,0.14,0.16,0.15,-0.75,-0.73,-0.74,0.0,5.0,6.0
50.0,76.0,61.33,1.0,-0.24,-0.2,-0.22,0.28,0.32,0.3,-0.94,-0.93,-0.93,0.0,0.0,6.0
48.0,50.0,48.8,1.0,-0.22,-0.2,-0.22,0.31,0.34,0.32,-0.93,-0.92,-0.93,0.0,0.0,6.0
57.0,57.0,57.0,1.0,-0.58,-0.56,-0.57,0.04,0.09,0.06,-0.83,-0.82,-0.82,0.0,5.0,6.0
51.0,57.0,53.5,1.0,0.28,0.3,0.29,0.09,0.12,0.11,-0.96,-0.94,-0.95,0.0,0.0,6.0
50.0,52.0,50.33,1.0,0.39,0.41,0.4,0.19,0.21,0.21,-0.9,-0.89,-0.9,0.0,5.0,6.0
52.0,55.0,53.67,1.0,-0.67,-0.65,-0.66,0.13,0.14,0.14,-0.75,-0.73,-0.74,0.0,0.0,6.0
50.0,53.0,51.33,1.0,0.4,0.41,0.4,0.2,0.21,0.21,-0.9,-0.88,-0.89,0.0,5.0,6.0
52.0,56.0,54.0,0.99,0.32,0.63,0.62,-0.93,-0.76,-0.77,-0.14,0.37,0.12,0.0,5.0,6.0
50.0,50.0,50.0,0.99,0.62,0.64,0.63,-0.76,-0.76,-0.76,0.09,0.11,0.1,0.0,5.0,6.0
55.0,57.0,55.83,1.0,-0.67,-0.66,-0.66,0.14,0.15,0.14,-0.75,-0.73,-0.74,0.0,5.0,6.0
52.0,55.0,53.5,1.0,-0.66,-0.65,-0.66,0.14,0.15,0.14,-0.75,-0.73,-0.74,0.0,5.0,6.0
51.0,58.0,53.17,1.0,0.4,0.41,0.4,0.19,0.21,0.2,-0.9,-0.89,-0.89,0.0,5.0,6.0
54.0,55.0,54.4,1.0,-0.67,-0.65,-0.66,0.12,0.15,0.14,-0.75,-0.73,-0.74,0.0,5.0,6.0
50.0,51.0,50.33,1.01,-0.6,0.03,-0.36,-0.44,0.92,0.17,-1.3,-0.54,-0.88,0.0,0.0,6.0
52.0,55.0,53.83,1.0,0.25,0.26,0.25,0.03,0.04,0.04,-0.97,-0.96,-0.97,0.0,5.0,6.0
50.0,55.0,52.67,1.0,-0.58,-0.56,-0.57,0.04,0.06,0.05,-0.83,-0.82,-0.82,0.0,5.0,6.0
55.0,57.0,56.0,0.99,-0.3,-0.29,-0.3,-0.42,-0.41,-0.41,0.85,0.86,0.85,0.0,0.0,6.0
53.0,59.0,55.67,1.0,0.31,0.55,0.38,-0.84,-0.38,-0.69,-0.83,-0.47,-0.61,0.0,0.0,6.0
48.0,50.0,49.33,1.0,-0.23,-0.21,-0.22,0.32,0.33,0.32,-0.93,-0.92,-0.93,0.0,0.0,6.0
50.0,51.0,50.67,1.0,-0.22,-0.2,-0.21,0.33,0.35,0.34,-0.93,-0.92,-0.92,0.0,0.0,6.0
50.0,50.0,50.0,1.0,-0.44,-0.43,-0.43,0.18,0.2,0.19,-0.89,-0.88,-0.88,0.0,0.0,6.0
50.0,51.0,50.4,1.0,0.4,0.41,0.4,0.19,0.21,0.2,-0.9,-0.89,-0.89,0.0,5.0,6.0
58.0,70.0,64.71,1.0,0.52,0.69,0.61,-0.44,-0.15,-0.31,-0.75,-0.68,-0.72,0.0,0.0,6.0
52.0,56.0,53.67,1.0,-0.67,-0.66,-0.66,0.14,0.15,0.15,-0.75,-0.73,-0.74,0.0,5.0,6.0
50.0,51.0,50.83,1.0,0.39,0.41,0.4,0.2,0.21,0.21,-0.9,-0.89,-0.9,0.0,5.0,6.0
59.0,59.0,59.0,0.99,-0.31,-0.3,-0.3,-0.38,-0.38,-0.38,0.86,0.87,0.87,1.0,2.0,6.0
52.0,55.0,53.5,1.0,-0.88,-0.86,-0.88,-0.44,-0.41,-0.43,-0.27,-0.2,-0.21,1.0,1.0,6.0
50.0,50.0,50.0,1.0,0.27,0.29,0.28,0.04,0.06,0.05,-0.97,-0.95,-0.96,1.0,2.0,6.0
50.0,50.0,50.0,0.99,-0.29,-0.29,-0.29,-0.51,-0.5,-0.51,0.8,0.81,0.8,1.0,2.0,6.0
50.0,53.0,52.43,1.0,-0.57,-0.56,-0.56,0.04,0.05,0.04,-0.83,-0.82,-0.83,1.0,2.0,6.0
57.0,58.0,57.29,1.0,0.57,0.58,0.57,0.12,0.13,0.12,-0.82,-0.8,-0.81,1.0,2.0,6.0
52.0,53.0,52.8,1.0,0.31,0.33,0.32,0.19,0.21,0.2,-0.94,-0.92,-0.93,1.0,2.0,6.0
50.0,50.0,50.0,1.0,-0.44,-0.42,-0.43,0.18,0.19,0.19,-0.89,-0.88,-0.89,1.0,2.0,6.0
51.0,52.0,51.83,1.0,-0.87,-0.85,-0.86,-0.43,-0.41,-0.42,-0.29,-0.28,-0.29,1.0,2.0,6.0
52.0,60.0,57.4,1.0,0.66,0.68,0.67,0.36,0.44,0.43,-0.64,-0.6,-0.6,1.0,2.0,6.0
52.0,54.0,52.5,1.0,-0.87,-0.85,-0.86,-0.46,-0.44,-0.45,-0.25,-0.23,-0.24,1.0,2.0,6.0
55.0,58.0,55.83,1.0,0.52,0.53,0.53,-0.16,-0.14,-0.15,-0.84,-0.83,-0.83,1.0,2.0,6.0
51.0,55.0,52.83,1.0,0.28,0.3,0.29,0.08,0.12,0.11,-0.96,-0.95,-0.95,1.0,1.0,6.0
55.0,57.0,56.29,1.0,0.54,0.55,0.55,0.04,0.06,0.05,-0.84,-0.83,-0.84,1.0,3.0,6.0
52.0,54.0,53.4,1.0,0.67,0.68,0.67,0.46,0.47,0.47,-0.58,-0.57,-0.58,1.0,2.0,6.0
50.0,56.0,54.8,1.0,0.29,0.32,0.3,0.1,0.19,0.13,-0.95,-0.93,-0.95,1.0,2.0,6.0
50.0,51.0,50.5,1.0,-0.66,-0.65,-0.66,0.13,0.15,0.14,-0.75,-0.74,-0.74,1.0,2.0,6.0
54.0,56.0,54.33,1.0,-0.66,-0.64,-0.65,0.24,0.26,0.25,-0.73,-0.71,-0.72,1.0,3.0,6.0
51.0,51.0,51.0,1.0,0.24,0.25,0.24,-0.03,-0.02,-0.02,-0.98,-0.97,-0.97,1.0,2.0,6.0
57.0,60.0,58.33,1.0,0.56,0.58,0.57,0.11,0.14,0.13,-0.83,-0.8,-0.81,1.0,2.0,6.0
52.0,66.0,54.67,1.0,0.66,0.68,0.67,0.45,0.48,0.45,-0.6,-0.59,-0.59,1.0,3.0,6.0
53.0,55.0,54.17,1.0,0.24,0.25,0.24,-0.04,0.0,-0.02,-0.99,-0.96,-0.97,1.0,2.0,6.0
56.0,56.0,56.0,1.0,0.67,0.68,0.67,0.43,0.44,0.43,-0.61,-0.6,-0.6,1.0,3.0,6.0
56.0,67.0,61.33,0.99,-0.3,-0.29,-0.3,-0.4,-0.4,-0.4,0.86,0.87,0.86,1.0,2.0,6.0
51.0,53.0,51.57,1.0,-0.89,-0.87,-0.88,-0.44,-0.42,-0.43,-0.21,-0.2,-0.2,1.0,2.0,6.0
54.0,62.0,57.0,1.0,0.49,0.64,0.57,-0.41,0.51,0.09,-0.9,-0.73,-0.81,1.0,2.0,6.0
50.0,51.0,50.17,1.0,-0.44,-0.42,-0.43,0.18,0.2,0.19,-0.89,-0.88,-0.89,1.0,2.0,6.0
53.0,54.0,53.17,1.0,-0.87,-0.85,-0.86,-0.43,-0.41,-0.42,-0.3,-0.28,-0.29,1.0,2.0,6.0
54.0,56.0,55.0,1.0,-0.44,-0.43,-0.43,0.18,0.19,0.19,-0.89,-0.88,-0.89,1.0,2.0,6.0
55.0,55.0,55.0,1.0,-0.47,-0.46,-0.47,-0.06,-0.03,-0.03,-0.89,-0.84,-0.89,1.0,2.0,6.0
72.0,74.0,72.67,0.99,-0.48,-0.4,-0.43,-0.62,-0.03,-0.23,-0.89,-0.63,-0.83,0.0,0.0,5.0
71.0,72.0,71.33,0.99,-0.2,-0.2,-0.2,-0.97,-0.97,-0.97,-0.07,-0.07,-0.07,0.0,5.0,5.0
72.0,74.0,73.0,1.0,0.1,0.1,0.1,0.27,0.28,0.28,-0.95,-0.95,-0.95,0.0,5.0,5.0
68.0,68.0,68.0,0.99,-0.57,-0.56,-0.56,-0.73,-0.72,-0.72,0.37,0.39,0.38,0.0,0.0,5.0
74.0,77.0,75.83,1.0,0.1,0.1,0.1,0.27,0.28,0.28,-0.95,-0.95,-0.95,0.0,5.0,5.0
72.0,76.0,73.8,0.99,-0.32,-0.31,-0.31,0.26,0.28,0.28,-0.9,-0.9,-0.9,0.0,5.0,5.0
75.0,76.0,75.67,0.99,-0.2,-0.2,-0.2,-0.97,-0.97,-0.97,-0.07,-0.07,-0.07,0.0,5.0,5.0
71.0,72.0,71.2,1.01,0.25,0.25,0.25,0.34,0.34,0.34,0.91,0.92,0.91,0.0,5.0,5.0
75.0,77.0,76.17,0.99,-0.39,-0.39,-0.39,-0.15,-0.15,-0.15,-0.9,-0.9,-0.9,0.0,5.0,5.0
72.0,112.0,86.4,1.01,0.17,0.18,0.17,-0.03,-0.02,-0.03,0.98,0.99,0.99,0.0,5.0,5.0
71.0,72.0,71.2,0.99,-0.2,-0.2,-0.2,-0.97,-0.97,-0.97,-0.07,-0.07,-0.07,0.0,5.0,5.0
73.0,75.0,73.67,0.99,-0.31,-0.31,-0.31,0.27,0.28,0.28,-0.9,-0.9,-0.9,0.0,5.0,5.0
69.0,70.0,69.17,0.99,-0.84,0.14,-0.45,-0.74,1.27,-0.14,-1.02,0.29,-0.54,0.0,0.0,5.0
75.0,77.0,76.67,0.99,-0.36,-0.35,-0.36,0.32,0.34,0.33,-0.87,-0.86,-0.86,0.0,5.0,5.0
75.0,77.0,76.5,0.99,-0.2,-0.19,-0.19,-0.97,-0.97,-0.97,-0.07,-0.06,-0.07,0.0,5.0,5.0
69.0,73.0,71.33,1.01,0.25,0.25,0.25,0.34,0.34,0.34,0.91,0.92,0.91,0.0,5.0,5.0
75.0,77.0,76.67,0.99,-0.21,-0.2,-0.2,-0.95,-0.94,-0.94,0.23,0.24,0.24,0.0,0.0,5.0
67.0,71.0,69.0,0.99,-0.2,-0.2,-0.2,-0.97,-0.97,-0.97,-0.07,-0.07,-0.07,0.0,5.0,5.0
75.0,75.0,75.0,1.01,0.25,0.25,0.25,0.34,0.35,0.34,0.91,0.91,0.91,0.0,5.0,5.0
70.0,75.0,72.67,0.99,-0.32,-0.31,-0.31,0.27,0.28,0.28,-0.91,-0.9,-0.9,0.0,5.0,5.0
72.0,78.0,75.17,0.99,-0.2,-0.2,-0.2,-0.97,-0.97,-0.97,-0.08,-0.07,-0.07,0.0,5.0,5.0
70.0,75.0,71.83,0.99,-0.2,-0.19,-0.2,-0.97,-0.97,-0.97,-0.08,-0.07,-0.07,0.0,5.0,5.0
71.0,73.0,72.33,0.99,-0.32,-0.31,-0.31,0.27,0.29,0.28,-0.91,-0.9,-0.9,0.0,5.0,5.0
70.0,72.0,70.6,0.99,-0.32,-0.31,-0.31,0.27,0.28,0.27,-0.91,-0.89,-0.9,0.0,5.0,5.0
76.0,85.0,80.6,0.99,-0.29,-0.21,-0.26,-0.94,-0.83,-0.87,0.23,0.46,0.38,0.0,5.0,5.0
83.0,83.0,83.0,1.0,0.41,0.42,0.42,0.15,0.17,0.16,-0.9,-0.89,-0.89,0.0,5.0,5.0
76.0,77.0,76.17,0.99,-0.2,-0.2,-0.2,-0.97,-0.97,-0.97,-0.08,-0.07,-0.07,0.0,5.0,5.0
70.0,71.0,70.75,0.99,0.34,0.34,0.34,-0.24,-0.23,-0.24,-0.91,-0.9,-0.9,0.0,5.0,5.0
77.0,79.0,78.5,1.0,0.1,0.1,0.1,0.28,0.28,0.28,-0.95,-0.95,-0.95,0.0,5.0,5.0
70.0,74.0,71.67,0.99,-0.2,-0.19,-0.2,-0.97,-0.97,-0.97,-0.07,-0.07,-0.07,0.0,5.0,5.0
76.0,78.0,76.67,0.99,-0.2,-0.19,-0.19,-0.97,-0.97,-0.97,-0.07,-0.06,-0.06,0.0,5.0,5.0
69.0,70.0,69.17,0.99,-0.41,0.07,-0.37,-0.23,0.03,-0.21,-1.16,-0.79,-0.88,0.0,0.0,5.0
75.0,80.0,78.67,0.99,-0.2,-0.19,-0.19,-0.97,-0.97,-0.97,-0.07,-0.06,-0.06,0.0,5.0,5.0
74.0,75.0,74.17,0.99,-0.2,-0.2,-0.2,-0.97,-0.97,-0.97,-0.07,-0.07,-0.07,0.0,5.0,5.0
75.0,85.0,79.0,1.0,0.27,0.28,0.27,-0.93,-0.92,-0.93,0.25,0.26,0.26,1.0,2.0,5.0
68.0,72.0,69.67,0.99,-0.32,-0.31,-0.31,0.26,0.27,0.27,-0.9,-0.9,-0.9,1.0,2.0,5.0
71.0,72.0,71.33,0.99,-0.45,-0.44,-0.45,0.29,0.31,0.3,-0.84,-0.83,-0.83,1.0,2.0,5.0
76.0,77.0,76.2,1.0,-0.74,-0.74,-0.74,-0.46,-0.46,-0.46,0.48,0.48,0.48,1.0,2.0,5.0
74.0,75.0,74.67,0.99,-0.32,-0.31,-0.31,0.26,0.28,0.27,-0.91,-0.9,-0.9,1.0,2.0,5.0
72.0,77.0,75.0,0.99,-0.3,-0.29,-0.3,0.65,0.66,0.66,-0.69,-0.68,-0.69,1.0,2.0,5.0
77.0,78.0,77.2,1.0,0.3,0.31,0.3,-0.95,-0.95,-0.95,-0.0,0.01,0.0,1.0,2.0,5.0
78.0,82.0,79.67,1.0,0.25,0.25,0.25,-0.93,-0.93,-0.93,0.26,0.26,0.26,1.0,2.0,5.0
76.0,77.0,76.5,0.99,-0.21,-0.2,-0.2,-0.97,-0.97,-0.97,-0.08,-0.07,-0.07,1.0,2.0,5.0
75.0,83.0,77.5,0.99,0.44,0.45,0.44,-0.37,-0.36,-0.37,-0.82,-0.81,-0.81,1.0,3.0,5.0
72.0,77.0,75.14,0.99,-0.3,-0.29,-0.29,0.65,0.66,0.66,-0.69,-0.69,-0.69,1.0,2.0,5.0
68.0,72.0,69.5,0.99,-0.32,-0.31,-0.31,0.26,0.28,0.27,-0.91,-0.9,-0.9,1.0,2.0,5.0
71.0,77.0,74.17,0.99,-0.31,-0.31,-0.31,0.27,0.29,0.28,-0.91,-0.9,-0.9,1.0,2.0,5.0
73.0,76.0,74.0,0.99,-0.41,-0.41,-0.41,0.05,0.06,0.05,-0.91,-0.9,-0.9,1.0,2.0,5.0
77.0,79.0,77.83,1.01,0.26,0.27,0.27,0.97,0.97,0.97,-0.07,-0.06,-0.06,1.0,3.0,5.0
74.0,75.0,74.67,1.01,0.27,0.28,0.27,0.3,0.3,0.3,0.92,0.92,0.92,1.0,3.0,5.0
71.0,75.0,72.67,0.99,-0.32,-0.31,-0.31,0.26,0.28,0.27,-0.91,-0.9,-0.9,1.0,2.0,5.0
77.0,78.0,77.17,0.99,0.4,0.46,0.45,-0.63,-0.2,-0.4,-0.89,-0.68,-0.79,1.0,3.0,5.0
77.0,78.0,77.2,0.99,0.45,0.46,0.46,-0.42,-0.41,-0.42,-0.79,-0.78,-0.78,1.0,3.0,5.0
77.0,81.0,79.0,1.0,0.2,0.2,0.2,0.98,0.99,0.98,-0.05,-0.05,-0.05,1.0,3.0,5.0
59.0,61.0,59.8,1.0,-0.37,-0.36,-0.37,-0.22,-0.22,-0.22,0.9,0.91,0.9,0.0,5.0,3.0
51.0,52.0,51.67,1.0,-0.54,-0.09,-0.32,0.32,1.0,0.84,-0.95,0.44,-0.15,0.0,0.0,3.0
53.0,54.0,53.83,1.0,-0.51,-0.34,-0.39,0.83,0.96,0.92,-0.17,0.06,0.0,0.0,0.0,3.0
62.0,65.0,63.67,1.0,-0.36,-0.35,-0.36,-0.22,-0.21,-0.21,0.9,0.91,0.91,0.0,5.0,3.0
58.0,61.0,59.5,1.0,-0.61,-0.6,-0.6,-0.13,-0.12,-0.12,-0.8,-0.78,-0.79,0.0,5.0,3.0
59.0,59.0,59.0,1.0,-0.28,-0.27,-0.27,-0.35,-0.34,-0.34,0.89,0.9,0.89,0.0,0.0,3.0
57.0,58.0,57.2,1.0,-0.28,-0.27,-0.27,-0.35,-0.34,-0.35,0.89,0.9,0.89,0.0,0.0,3.0
60.0,65.0,62.67,1.0,0.45,0.46,0.45,-0.13,-0.12,-0.13,-0.89,-0.87,-0.88,0.0,0.0,3.0
56.0,64.0,59.33,1.0,0.44,0.46,0.45,-0.13,-0.12,-0.13,-0.89,-0.88,-0.88,0.0,0.0,3.0
61.0,63.0,62.0,1.0,-0.38,-0.36,-0.37,-0.22,-0.21,-0.22,0.89,0.9,0.9,0.0,5.0,3.0
58.0,58.0,58.0,1.0,-0.27,-0.26,-0.26,-0.31,-0.3,-0.3,0.9,0.92,0.91,0.0,0.0,3.0
55.0,58.0,56.83,1.0,-0.61,-0.6,-0.6,-0.13,-0.11,-0.12,-0.8,-0.79,-0.79,0.0,5.0,3.0
58.0,58.0,58.0,1.0,-0.27,-0.26,-0.27,-0.18,-0.18,-0.18,0.93,0.95,0.94,1.0,2.0,3.0
47.0,76.0,55.75,1.0,-0.16,-0.15,-0.16,-0.99,-0.98,-0.99,-0.02,0.02,-0.01,1.0,2.0,3.0
56.0,59.0,57.8,1.0,-0.27,-0.26,-0.27,-0.21,-0.2,-0.21,0.93,0.95,0.94,1.0,2.0,3.0
53.0,54.0,53.2,1.0,-0.05,-0.04,-0.04,-0.99,-0.97,-0.98,0.18,0.19,0.19,1.0,2.0,3.0
61.0,67.0,64.0,1.0,-0.61,-0.59,-0.6,-0.14,-0.12,-0.13,-0.8,-0.79,-0.79,1.0,2.0,3.0
57.0,59.0,58.4,1.0,0.36,0.37,0.36,0.11,0.12,0.12,-0.93,-0.92,-0.93,1.0,2.0,3.0
48.0,59.0,54.5,1.0,0.45,0.47,0.46,-0.14,-0.12,-0.13,-0.88,-0.87,-0.88,1.0,2.0,3.0
67.0,76.0,70.0,1.0,0.45,0.47,0.45,-0.14,-0.12,-0.13,-0.89,-0.87,-0.88,1.0,2.0,3.0
55.0,59.0,56.83,1.0,-0.44,-0.19,-0.36,0.61,0.98,0.91,-0.66,0.25,0.04,1.0,2.0,3.0
57.0,59.0,57.8,1.0,-0.94,-0.3,-0.54,-0.57,0.17,-0.28,0.33,1.03,0.71,1.0,2.0,3.0
59.0,63.0,61.71,1.0,-0.61,-0.6,-0.6,-0.14,-0.12,-0.13,-0.8,-0.78,-0.79,1.0,2.0,3.0
59.0,61.0,60.2,1.0,0.44,0.46,0.45,-0.13,-0.12,-0.12,-0.89,-0.88,-0.89,1.0,2.0,3.0
55.0,58.0,57.0,1.0,-0.27,-0.26,-0.26,-0.22,-0.21,-0.21,0.93,0.94,0.94,1.0,2.0,3.0
59.0,65.0,61.2,1.0,-0.05,-0.04,-0.05,-0.99,-0.98,-0.98,0.15,0.17,0.16,1.0,2.0,3.0
58.0,59.0,58.5,1.0,-0.27,-0.27,-0.27,-0.13,-0.12,-0.12,0.95,0.96,0.95,1.0,2.0,3.0
55.0,56.0,55.33,1.0,-0.27,-0.26,-0.27,-0.12,-0.12,-0.12,0.95,0.96,0.95,1.0,2.0,3.0
69.0,83.0,76.8,1.0,-0.05,-0.04,-0.05,-0.99,-0.98,-0.98,0.16,0.17,0.17,1.0,2.0,3.0
57.0,60.0,58.67,1.0,0.36,0.36,0.36,0.1,0.11,0.11,-0.93,-0.92,-0.93,1.0,2.0,3.0
54.0,59.0,56.14,1.0,0.45,0.47,0.46,-0.14,-0.13,-0.14,-0.89,-0.87,-0.88,1.0,2.0,3.0
60.0,60.0,60.0,1.0,0.44,0.45,0.45,-0.13,-0.12,-0.12,-0.9,-0.88,-0.89,1.0,2.0,3.0
55.0,65.0,60.2,1.0,-0.2,-0.14,-0.15,-1.05,-0.76,-0.98,-0.35,0.29,0.0,1.0,2.0,3.0
72.0,73.0,72.5,1.0,-0.11,-0.02,-0.08,0.77,0.87,0.81,0.5,0.63,0.59,0.0,5.0,7.0
63.0,64.0,63.6,1.0,0.04,0.04,0.04,-0.99,-0.98,-0.99,0.14,0.16,0.15,0.0,0.0,7.0
72.0,74.0,72.6,1.0,-0.1,-0.08,-0.09,0.81,0.84,0.82,0.54,0.59,0.56,0.0,5.0,7.0
62.0,63.0,62.17,0.99,-0.22,-0.2,-0.21,0.1,0.16,0.13,-0.97,-0.93,-0.96,0.0,0.0,7.0
70.0,70.0,70.0,1.0,0.65,0.66,0.65,0.75,0.76,0.76,-0.02,-0.0,-0.01,0.0,0.0,7.0
74.0,75.0,74.43,0.99,-0.33,-0.32,-0.32,-0.14,-0.13,-0.14,-0.93,-0.92,-0.93,0.0,5.0,7.0
61.0,62.0,61.17,1.0,0.04,0.05,0.04,-0.99,-0.98,-0.99,0.14,0.15,0.14,0.0,0.0,7.0
71.0,74.0,72.5,1.0,-0.49,0.69,0.24,-1.16,0.91,-0.86,-1.44,0.44,0.28,0.0,5.0,7.0
75.0,77.0,76.0,1.01,0.27,0.28,0.27,-0.29,-0.28,-0.28,0.92,0.93,0.93,1.0,2.0,7.0
75.0,83.0,79.0,1.0,0.3,0.3,0.3,0.63,0.64,0.64,0.71,0.72,0.72,1.0,2.0,7.0
59.0,66.0,63.4,1.0,0.16,0.18,0.17,-0.91,-0.89,-0.89,0.4,0.43,0.42,1.0,2.0,7.0
64.0,65.0,64.6,0.99,-0.26,-0.25,-0.25,-0.3,-0.28,-0.29,-0.93,-0.91,-0.91,1.0,2.0,7.0
60.0,66.0,62.67,1.0,0.3,0.31,0.3,0.64,0.65,0.64,0.7,0.71,0.71,1.0,2.0,7.0
63.0,63.0,63.0,0.99,-0.49,-0.22,-0.25,-0.58,0.0,-0.15,-1.08,-0.61,-0.93,1.0,2.0,7.0
58.0,59.0,58.83,0.99,-0.22,-0.21,-0.22,0.12,0.13,0.12,-0.96,-0.95,-0.96,1.0,2.0,7.0
61.0,72.0,65.67,1.0,0.19,0.2,0.2,-0.94,-0.92,-0.93,0.31,0.33,0.31,1.0,2.0,7.0
65.0,66.0,65.5,0.99,-0.25,-0.24,-0.24,-0.28,-0.26,-0.27,-0.93,-0.92,-0.92,1.0,2.0,7.0
65.0,66.0,65.17,0.99,-0.25,-0.24,-0.24,-0.28,-0.26,-0.27,-0.92,-0.91,-0.92,1.0,2.0,7.0
58.0,66.0,60.33,1.0,0.18,0.19,0.19,-0.91,-0.89,-0.9,0.39,0.41,0.4,1.0,2.0,7.0
71.0,73.0,71.67,1.01,0.38,0.42,0.39,0.26,0.31,0.27,0.85,0.92,0.89,1.0,2.0,7.0
63.0,68.0,65.33,1.01,0.27,0.28,0.28,-0.3,-0.29,-0.29,0.92,0.93,0.92,1.0,2.0,7.0
73.0,76.0,74.6,0.99,-0.06,-0.05,-0.05,0.16,0.17,0.16,-0.98,-0.97,-0.98,1.0,2.0,7.0
68.0,73.0,71.17,1.01,0.26,0.35,0.3,-0.39,-0.23,-0.29,0.86,0.98,0.91,1.0,2.0,7.0
70.0,75.0,72.4,1.01,0.29,0.35,0.32,-0.32,-0.25,-0.3,0.89,0.91,0.91,1.0,1.0,7.0
72.0,73.0,72.4,0.99,-0.12,0.07,-0.04,0.13,0.27,0.16,-1.02,-0.9,-0.98,1.0,2.0,7.0
72.0,75.0,73.67,0.99,-0.05,-0.04,-0.05,0.15,0.16,0.16,-0.98,-0.97,-0.98,1.0,2.0,7.0
68.0,68.0,68.0,0.99,-0.25,-0.24,-0.25,-0.32,-0.28,-0.29,-0.92,-0.89,-0.91,1.0,2.0,7.0
67.0,68.0,67.83,1.0,0.78,0.79,0.78,-0.04,-0.04,-0.04,-0.63,-0.62,-0.62,0.0,5.0,30.0
70.0,71.0,70.4,1.0,0.78,0.79,0.78,-0.04,-0.04,-0.04,-0.63,-0.61,-0.62,0.0,5.0,30.0
67.0,68.0,67.83,1.0,-0.68,-0.68,-0.68,-0.73,-0.72,-0.72,-0.11,-0.1,-0.1,0.0,5.0,30.0
71.0,77.0,74.0,1.0,0.17,0.18,0.17,-0.62,-0.62,-0.62,-0.77,-0.76,-0.76,0.0,5.0,30.0
66.0,67.0,66.5,1.0,-0.68,-0.68,-0.68,-0.73,-0.72,-0.72,-0.11,-0.1,-0.1,0.0,5.0,30.0
67.0,68.0,67.83,1.0,0.44,0.45,0.45,-0.81,-0.8,-0.81,-0.39,-0.37,-0.38,0.0,5.0,30.0
68.0,70.0,68.67,1.0,0.07,0.08,0.08,-0.44,-0.43,-0.43,-0.9,-0.89,-0.9,0.0,0.0,30.0
65.0,67.0,65.6,1.0,-0.28,-0.28,-0.28,-0.23,-0.22,-0.22,-0.94,-0.93,-0.93,0.0,5.0,30.0
75.0,89.0,81.83,1.0,-0.18,-0.17,-0.17,0.31,0.32,0.31,-0.94,-0.93,-0.94,0.0,5.0,30.0
65.0,72.0,68.83,1.0,0.83,0.84,0.83,0.17,0.17,0.17,-0.54,-0.52,-0.53,0.0,5.0,30.0
68.0,68.0,68.0,1.0,0.07,0.08,0.08,-0.44,-0.43,-0.43,-0.9,-0.89,-0.9,0.0,0.0,30.0
66.0,67.0,66.17,1.0,0.44,0.45,0.44,-0.81,-0.8,-0.81,-0.39,-0.37,-0.38,0.0,5.0,30.0
66.0,66.0,66.0,1.0,-0.28,-0.27,-0.28,-0.23,-0.22,-0.22,-0.94,-0.93,-0.93,0.0,5.0,30.0
71.0,75.0,73.83,1.0,-0.1,-0.09,-0.1,0.54,0.55,0.54,-0.84,-0.84,-0.84,0.0,0.0,30.0
67.0,68.0,67.67,1.0,-0.1,-0.09,-0.1,0.54,0.54,0.54,-0.84,-0.84,-0.84,0.0,0.0,30.0
73.0,99.0,89.6,1.0,0.44,0.45,0.45,-0.81,-0.8,-0.81,-0.38,-0.36,-0.37,0.0,5.0,30.0
72.0,76.0,74.29,1.0,0.45,0.46,0.45,-0.81,-0.8,-0.81,-0.37,-0.34,-0.36,0.0,5.0,30.0
66.0,74.0,70.17,1.0,0.74,0.74,0.74,0.52,0.53,0.52,-0.43,-0.42,-0.43,0.0,5.0,30.0
66.0,74.0,71.8,1.0,0.44,0.45,0.45,-0.81,-0.8,-0.81,-0.38,-0.37,-0.37,0.0,5.0,30.0
66.0,68.0,67.6,1.0,-0.68,-0.67,-0.68,-0.73,-0.72,-0.72,-0.11,-0.1,-0.1,0.0,5.0,30.0
68.0,68.0,68.0,1.0,0.78,0.79,0.78,-0.04,-0.04,-0.04,-0.63,-0.61,-0.62,0.0,5.0,30.0
67.0,68.0,67.67,1.0,-0.68,-0.67,-0.68,-0.73,-0.72,-0.72,-0.11,-0.1,-0.1,0.0,5.0,30.0
69.0,71.0,70.67,1.0,0.44,0.45,0.45,-0.81,-0.8,-0.81,-0.38,-0.37,-0.37,0.0,5.0,30.0
67.0,68.0,67.4,1.0,-0.11,-0.1,-0.1,0.42,0.43,0.43,-0.9,-0.9,-0.9,1.0,2.0,30.0
70.0,70.0,70.0,1.0,0.07,0.08,0.08,-0.44,-0.43,-0.43,-0.9,-0.89,-0.9,1.0,2.0,30.0
67.0,68.0,67.5,1.0,-0.11,-0.1,-0.1,0.43,0.43,0.43,-0.9,-0.9,-0.9,1.0,1.0,30.0
68.0,69.0,68.2,1.0,-0.1,-0.1,-0.1,0.42,0.43,0.42,-0.91,-0.9,-0.9,1.0,2.0,30.0
63.0,69.0,66.17,1.0,-0.54,-0.53,-0.53,0.17,0.19,0.18,-0.84,-0.83,-0.83,1.0,2.0,30.0
80.0,86.0,82.67,1.0,-0.3,-0.29,-0.3,0.11,0.12,0.11,-0.95,-0.95,-0.95,1.0,3.0,30.0
68.0,70.0,69.0,1.0,0.07,0.08,0.08,-0.44,-0.43,-0.44,-0.9,-0.89,-0.9,1.0,1.0,30.0
70.0,71.0,70.2,1.0,0.07,0.08,0.08,-0.44,-0.43,-0.44,-0.9,-0.89,-0.9,1.0,1.0,30.0
66.0,66.0,66.0,1.0,-0.04,-0.03,-0.03,-0.01,-0.01,-0.01,0.99,1.0,1.0,1.0,2.0,30.0
61.0,61.0,61.0,1.0,-0.02,-0.01,-0.02,-0.04,-0.04,-0.04,-1.0,-1.0,-1.0,1.0,2.0,30.0
64.0,66.0,65.33,1.01,-0.24,-0.15,-0.19,0.44,0.63,0.6,-0.9,-0.75,-0.78,1.0,2.0,30.0
64.0,67.0,65.8,1.0,-0.36,-0.35,-0.35,0.17,0.19,0.18,-0.93,-0.91,-0.92,1.0,2.0,30.0
71.0,75.0,72.83,1.0,0.78,0.79,0.79,-0.04,-0.04,-0.04,-0.62,-0.61,-0.62,1.0,2.0,30.0
69.0,74.0,70.83,1.0,0.22,0.24,0.23,-0.33,-0.32,-0.32,-0.92,-0.91,-0.92,0.0,0.0,19.0
71.0,75.0,73.17,1.0,0.22,0.23,0.22,-0.37,-0.36,-0.36,-0.91,-0.9,-0.9,0.0,0.0,19.0
63.0,71.0,67.17,1.0,-0.62,-0.61,-0.61,0.15,0.16,0.16,-0.78,-0.77,-0.77,0.0,5.0,19.0
65.0,67.0,66.0,1.0,0.22,0.23,0.22,-0.05,-0.05,-0.05,-0.97,-0.97,-0.97,0.0,0.0,19.0
71.0,77.0,74.33,1.0,-0.5,-0.49,-0.49,0.85,0.85,0.85,-0.2,-0.19,-0.19,0.0,5.0,19.0
77.0,79.0,78.5,1.0,-0.37,-0.36,-0.37,0.83,0.83,0.83,-0.42,-0.42,-0.42,0.0,5.0,19.0
74.0,77.0,75.5,1.0,-0.43,-0.42,-0.42,0.87,0.88,0.87,-0.25,-0.23,-0.24,0.0,5.0,19.0
73.0,74.0,73.67,1.0,0.64,0.66,0.65,0.17,0.19,0.17,-0.75,-0.73,-0.74,0.0,0.0,19.0
70.0,75.0,72.8,1.0,-0.64,-0.63,-0.63,0.13,0.14,0.14,-0.76,-0.76,-0.76,0.0,5.0,19.0
80.0,82.0,80.67,1.0,-0.38,-0.37,-0.38,0.83,0.83,0.83,-0.42,-0.41,-0.41,0.0,5.0,19.0
62.0,65.0,63.5,1.0,0.13,0.14,0.13,0.29,0.31,0.3,-0.95,-0.94,-0.94,0.0,0.0,19.0
66.0,67.0,66.33,1.01,-1.06,0.45,-0.07,0.07,0.93,0.56,-1.07,-0.47,-0.77,0.0,0.0,19.0
73.0,77.0,74.33,1.0,-0.49,-0.49,-0.49,0.84,0.84,0.84,-0.24,-0.23,-0.24,0.0,5.0,19.0
71.0,72.0,71.83,1.0,-0.64,-0.63,-0.63,0.13,0.14,0.14,-0.76,-0.76,-0.76,0.0,5.0,19.0
68.0,74.0,71.0,1.0,-0.58,-0.57,-0.57,-0.76,-0.74,-0.75,-0.33,-0.32,-0.32,0.0,5.0,19.0
71.0,73.0,71.67,1.0,-0.63,-0.63,-0.63,0.13,0.15,0.14,-0.77,-0.76,-0.76,0.0,5.0,19.0
62.0,64.0,62.6,1.0,0.13,0.14,0.14,0.27,0.28,0.27,-0.95,-0.95,-0.95,0.0,0.0,19.0
72.0,79.0,75.71,1.0,-0.62,-0.61,-0.62,0.05,0.06,0.06,-0.79,-0.78,-0.78,0.0,5.0,19.0
75.0,78.0,77.0,1.0,-0.36,-0.35,-0.36,0.82,0.83,0.82,-0.45,-0.44,-0.44,0.0,5.0,19.0
70.0,72.0,71.4,1.02,-0.72,1.34,0.17,-1.18,1.36,0.5,-1.77,0.74,-0.27,0.0,0.0,19.0
75.0,76.0,75.4,1.0,0.21,0.22,0.22,-0.37,-0.36,-0.36,-0.91,-0.9,-0.9,0.0,0.0,19.0
68.0,75.0,72.2,1.0,-0.87,0.52,-0.1,-0.95,0.8,-0.43,-1.39,0.63,-0.68,0.0,5.0,19.0
70.0,72.0,70.83,1.0,-0.64,-0.62,-0.63,0.13,0.16,0.14,-0.77,-0.75,-0.76,0.0,5.0,19.0
75.0,77.0,76.2,1.0,0.64,0.66,0.65,0.17,0.19,0.18,-0.74,-0.73,-0.74,0.0,0.0,19.0
68.0,76.0,70.67,1.0,-0.58,-0.57,-0.58,-0.76,-0.74,-0.75,-0.33,-0.31,-0.32,0.0,5.0,19.0
72.0,77.0,74.67,1.0,0.22,0.23,0.23,-0.33,-0.32,-0.33,-0.92,-0.91,-0.92,0.0,0.0,19.0
70.0,76.0,73.5,1.0,0.22,0.23,0.23,-0.34,-0.33,-0.33,-0.92,-0.91,-0.91,0.0,0.0,19.0
71.0,73.0,71.8,1.0,-0.64,-0.63,-0.63,0.13,0.15,0.14,-0.76,-0.76,-0.76,0.0,5.0,19.0
73.0,78.0,76.33,1.0,-0.42,-0.42,-0.42,0.87,0.88,0.87,-0.24,-0.24,-0.24,0.0,5.0,19.0
71.0,74.0,71.8,1.0,-0.63,-0.62,-0.63,0.13,0.14,0.14,-0.77,-0.76,-0.76,0.0,5.0,19.0
72.0,74.0,73.0,1.0,-0.79,-0.73,-0.77,-0.14,-0.0,-0.03,-0.64,-0.62,-0.63,0.0,5.0,19.0
76.0,78.0,77.0,1.0,-0.37,-0.36,-0.36,0.83,0.84,0.83,-0.42,-0.41,-0.42,0.0,5.0,19.0
71.0,79.0,73.5,1.0,-0.62,-0.61,-0.61,0.15,0.16,0.15,-0.78,-0.77,-0.77,0.0,5.0,19.0
73.0,76.0,74.5,1.0,-0.63,-0.63,-0.63,0.13,0.15,0.14,-0.77,-0.76,-0.76,0.0,5.0,19.0
70.0,70.0,70.0,1.0,0.21,0.22,0.21,-0.06,-0.05,-0.05,-0.98,-0.97,-0.97,0.0,0.0,19.0
65.0,68.0,66.33,1.0,0.22,0.23,0.22,-0.09,-0.01,-0.05,-0.97,-0.96,-0.97,0.0,0.0,19.0
62.0,65.0,64.33,1.0,0.13,0.14,0.14,0.28,0.31,0.28,-0.95,-0.94,-0.95,0.0,0.0,19.0
69.0,76.0,74.67,1.0,-0.99,-0.57,-0.83,-0.82,0.55,0.15,-0.73,0.5,-0.42,0.0,0.0,19.0
68.0,70.0,69.6,1.0,0.19,0.27,0.22,-0.11,0.05,-0.05,-0.98,-0.94,-0.97,0.0,0.0,19.0
61.0,68.0,64.83,1.0,0.13,0.15,0.14,0.27,0.3,0.27,-0.96,-0.94,-0.95,1.0,1.0,19.0
76.0,77.0,76.83,1.0,-0.54,-0.54,-0.54,0.82,0.83,0.82,-0.19,-0.18,-0.18,1.0,3.0,19.0
76.0,84.0,82.5,1.0,-0.6,-0.59,-0.6,0.04,0.05,0.05,-0.81,-0.79,-0.8,1.0,2.0,19.0
75.0,81.0,78.0,1.0,-0.61,-0.6,-0.6,0.11,0.12,0.12,-0.79,-0.78,-0.79,1.0,3.0,19.0
72.0,77.0,73.83,1.0,-0.52,-0.51,-0.51,0.82,0.83,0.83,-0.24,-0.23,-0.23,1.0,3.0,19.0
66.0,69.0,67.6,1.0,-0.61,-0.6,-0.6,0.06,0.08,0.07,-0.8,-0.79,-0.8,1.0,2.0,19.0
73.0,82.0,76.17,1.0,-0.62,-0.61,-0.62,-0.0,0.01,0.0,-0.79,-0.78,-0.79,1.0,2.0,19.0
72.0,75.0,74.0,1.0,-0.51,-0.5,-0.51,0.82,0.83,0.83,-0.25,-0.24,-0.25,1.0,3.0,19.0
74.0,77.0,75.8,1.0,-0.82,-0.75,-0.78,-0.1,-0.01,-0.05,-0.65,-0.58,-0.62,1.0,2.0,19.0
75.0,77.0,76.17,1.0,-0.44,-0.44,-0.44,0.86,0.87,0.87,-0.24,-0.23,-0.24,1.0,3.0,19.0
66.0,68.0,66.67,1.0,-0.6,-0.41,-0.49,0.22,0.7,0.56,-0.79,-0.49,-0.67,1.0,2.0,19.0
75.0,76.0,75.67,1.0,-0.51,-0.5,-0.51,0.82,0.83,0.83,-0.25,-0.24,-0.25,1.0,3.0,19.0
72.0,78.0,75.33,1.0,-0.36,-0.36,-0.36,0.82,0.82,0.82,-0.45,-0.44,-0.45,1.0,2.0,19.0
84.0,86.0,84.5,1.0,-0.61,-0.6,-0.61,0.03,0.05,0.04,-0.8,-0.79,-0.79,1.0,2.0,19.0
73.0,76.0,74.5,1.0,-0.43,-0.42,-0.42,0.87,0.88,0.87,-0.24,-0.23,-0.24,1.0,2.0,19.0
70.0,72.0,71.0,1.0,-0.52,-0.51,-0.51,0.82,0.83,0.83,-0.24,-0.23,-0.23,1.0,2.0,19.0
71.0,83.0,74.67,1.0,-0.62,-0.61,-0.62,-0.02,-0.0,-0.01,-0.79,-0.78,-0.79,1.0,2.0,19.0
67.0,73.0,69.5,1.0,-0.61,-0.59,-0.6,0.05,0.07,0.06,-0.8,-0.79,-0.8,1.0,2.0,19.0
77.0,78.0,77.8,1.0,-0.36,-0.35,-0.36,0.82,0.82,0.82,-0.45,-0.44,-0.45,1.0,2.0,19.0
71.0,74.0,72.0,1.0,-0.52,-0.51,-0.51,0.82,0.83,0.83,-0.24,-0.23,-0.23,1.0,2.0,19.0
74.0,77.0,76.17,1.0,-0.51,-0.5,-0.51,0.82,0.83,0.83,-0.25,-0.24,-0.25,1.0,2.0,19.0
50.0,52.0,50.83,1.0,0.33,0.33,0.33,-0.84,-0.84,-0.84,-0.43,-0.42,-0.42,0.0,5.0,12.0
51.0,52.0,51.67,1.0,0.32,0.33,0.33,-0.86,-0.85,-0.85,-0.4,-0.39,-0.4,0.0,5.0,12.0
47.0,48.0,47.6,1.0,-0.35,-0.34,-0.35,-0.14,-0.14,-0.14,0.92,0.93,0.92,0.0,0.0,12.0
52.0,53.0,52.33,0.99,-0.28,-0.26,-0.27,-0.97,-0.95,-0.95,-0.11,-0.08,-0.1,0.0,5.0,12.0
56.0,62.0,60.5,0.99,0.51,0.52,0.52,-0.81,-0.81,-0.81,0.25,0.25,0.25,0.0,0.0,12.0
48.0,50.0,49.2,1.0,0.34,0.34,0.34,-0.83,-0.82,-0.83,-0.44,-0.43,-0.43,0.0,5.0,12.0
51.0,54.0,52.67,0.99,0.53,0.54,0.53,-0.65,-0.65,-0.65,0.53,0.53,0.53,0.0,5.0,12.0
50.0,52.0,51.2,0.99,-0.29,-0.16,-0.25,-1.04,-0.92,-0.96,-0.03,0.28,0.01,0.0,5.0,12.0
50.0,54.0,51.4,1.0,-0.07,0.66,0.12,-0.96,-0.13,-0.21,-1.03,0.4,-0.93,0.0,5.0,12.0
52.0,62.0,54.0,0.99,0.53,0.54,0.53,-0.65,-0.65,-0.65,0.53,0.53,0.53,0.0,5.0,12.0
52.0,61.0,57.4,0.99,0.07,0.55,0.52,-0.9,0.26,-0.78,-1.0,0.24,0.19,0.0,5.0,12.0
47.0,48.0,47.83,1.01,-0.89,0.17,-0.32,-1.19,0.58,-0.24,-1.19,0.73,-0.57,0.0,0.0,12.0
50.0,51.0,50.33,1.0,0.32,0.33,0.33,-0.86,-0.85,-0.85,-0.4,-0.39,-0.4,0.0,5.0,12.0
50.0,50.0,50.0,1.0,0.32,0.33,0.33,-0.86,-0.85,-0.85,-0.4,-0.39,-0.4,0.0,5.0,12.0
69.0,71.0,69.67,0.99,0.43,0.44,0.43,-0.81,-0.8,-0.8,0.39,0.4,0.39,1.0,3.0,12.0
50.0,51.0,50.8,0.99,0.37,0.38,0.37,-0.82,-0.81,-0.82,0.42,0.43,0.42,1.0,3.0,12.0
51.0,51.0,51.0,1.0,-0.37,-0.36,-0.37,-0.08,-0.07,-0.07,0.92,0.93,0.92,1.0,2.0,12.0
60.0,62.0,61.5,0.99,0.43,0.43,0.43,-0.88,-0.87,-0.88,0.18,0.18,0.18,1.0,2.0,12.0
48.0,50.0,49.0,0.99,0.37,0.38,0.38,-0.88,-0.85,-0.87,0.3,0.31,0.3,1.0,3.0,12.0
50.0,52.0,50.67,0.99,0.37,0.38,0.37,-0.82,-0.82,-0.82,0.42,0.43,0.42,1.0,3.0,12.0
60.0,74.0,65.33,1.0,0.26,0.28,0.27,-0.11,-0.09,-0.11,-0.96,-0.95,-0.96,1.0,2.0,12.0
54.0,61.0,55.5,0.99,0.52,0.52,0.52,-0.82,-0.81,-0.81,0.24,0.24,0.24,1.0,2.0,12.0
68.0,68.0,68.0,0.99,0.43,0.44,0.43,-0.81,-0.8,-0.8,0.39,0.4,0.39,1.0,3.0,12.0
49.0,52.0,50.75,1.0,0.2,0.29,0.26,-0.35,-0.32,-0.35,-0.9,-0.87,-0.9,1.0,2.0,12.0
62.0,64.0,63.0,0.99,0.51,0.52,0.52,-0.81,-0.81,-0.81,0.25,0.26,0.26,1.0,3.0,12.0
49.0,53.0,50.4,1.0,-0.23,-0.22,-0.22,-0.21,-0.2,-0.2,-0.96,-0.95,-0.95,1.0,2.0,12.0
67.0,87.0,71.8,0.99,0.51,0.52,0.52,-0.81,-0.81,-0.81,0.25,0.26,0.25,1.0,2.0,12.0
67.0,69.0,67.5,0.99,0.43,0.44,0.43,-0.8,-0.8,-0.8,0.39,0.4,0.4,1.0,3.0,12.0
50.0,50.0,50.0,0.99,0.37,0.38,0.38,-0.87,-0.86,-0.87,0.3,0.31,0.3,1.0,3.0,12.0
50.0,51.0,50.2,1.0,0.26,0.27,0.26,-0.35,-0.34,-0.34,-0.91,-0.9,-0.9,1.0,2.0,12.0
59.0,62.0,61.0,0.99,0.49,0.5,0.49,-0.83,-0.82,-0.82,0.26,0.26,0.26,1.0,2.0,12.0
65.0,67.0,65.33,0.99,0.51,0.52,0.52,-0.81,-0.81,-0.81,0.25,0.25,0.25,1.0,2.0,12.0
50.0,51.0,50.4,0.99,0.37,0.38,0.38,-0.82,-0.81,-0.82,0.42,0.43,0.42,1.0,3.0,12.0
65.0,71.0,67.4,0.99,0.51,0.52,0.52,-0.81,-0.81,-0.81,0.25,0.26,0.26,1.0,3.0,12.0
52.0,52.0,52.0,1.0,0.32,0.33,0.33,-0.86,-0.85,-0.85,-0.4,-0.39,-0.39,1.0,2.0,12.0
63.0,68.0,65.6,1.0,-0.23,-0.22,-0.23,-0.2,-0.2,-0.2,-0.96,-0.95,-0.95,1.0,2.0,12.0
77.0,95.0,84.2,1.0,-0.38,-0.37,-0.38,-0.06,-0.06,-0.06,0.92,0.92,0.92,1.0,1.0,12.0
68.0,70.0,69.0,0.99,-0.38,-0.34,-0.35,0.08,0.16,0.11,-0.96,-0.89,-0.92,0.0,0.0,13.0
70.0,73.0,71.2,0.99,-0.39,-0.37,-0.38,-0.25,-0.23,-0.24,-0.9,-0.87,-0.88,0.0,0.0,13.0
69.0,69.0,69.0,1.0,-0.39,-0.08,-0.24,-0.65,-0.0,-0.58,0.69,1.0,0.76,1.0,2.0,13.0
72.0,73.0,72.33,1.0,0.49,0.51,0.5,-0.18,-0.02,-0.12,-0.87,-0.82,-0.85,1.0,1.0,13.0
70.0,70.0,70.0,0.99,0.27,0.35,0.28,0.0,0.6,0.32,-0.95,-0.74,-0.9,1.0,2.0,13.0
70.0,72.0,71.5,1.0,0.27,0.29,0.28,-0.2,-0.19,-0.19,-0.94,-0.93,-0.94,1.0,3.0,13.0
68.0,72.0,69.67,0.99,-0.54,-0.52,-0.53,-0.13,-0.1,-0.12,-0.84,-0.82,-0.83,1.0,3.0,13.0
60.0,67.0,64.33,1.0,-0.3,-0.27,-0.29,-0.62,-0.47,-0.51,-0.82,-0.74,-0.81,0.0,5.0,4.0
62.0,68.0,65.0,1.0,-0.21,-0.06,-0.13,0.01,0.11,0.06,-1.02,-0.96,-0.99,0.0,0.0,4.0
66.0,69.0,67.67,1.0,-0.28,-0.26,-0.27,-0.88,-0.86,-0.87,0.4,0.42,0.41,0.0,5.0,4.0
74.0,75.0,74.83,1.0,-0.18,-0.16,-0.17,-0.91,-0.9,-0.91,0.36,0.39,0.38,0.0,5.0,4.0
60.0,68.0,62.6,1.0,-0.29,-0.28,-0.28,-0.46,-0.44,-0.45,-0.85,-0.83,-0.84,0.0,5.0,4.0
64.0,65.0,64.67,1.0,-0.16,-0.13,-0.14,-0.31,-0.27,-0.29,-0.96,-0.93,-0.94,0.0,5.0,4.0
68.0,68.0,68.0,1.0,-0.28,-0.27,-0.27,-0.85,-0.83,-0.84,0.46,0.47,0.47,0.0,5.0,4.0
74.0,75.0,74.5,1.0,0.26,0.26,0.26,-0.74,-0.73,-0.73,0.61,0.63,0.62,0.0,5.0,4.0
59.0,63.0,60.4,1.0,-0.36,-0.34,-0.35,-0.5,-0.47,-0.48,-0.81,-0.79,-0.8,0.0,5.0,4.0
73.0,77.0,75.33,1.0,0.17,0.18,0.17,0.28,0.31,0.3,-0.95,-0.93,-0.94,0.0,5.0,4.0
55.0,60.0,57.5,1.0,-0.3,-0.28,-0.29,-0.61,-0.57,-0.58,-0.77,-0.73,-0.75,0.0,0.0,4.0
64.0,66.0,65.17,1.0,-0.17,-0.15,-0.16,0.19,0.2,0.19,-0.97,-0.96,-0.97,0.0,5.0,4.0
73.0,75.0,73.5,1.0,0.17,0.18,0.18,0.29,0.31,0.3,-0.94,-0.93,-0.94,0.0,5.0,4.0
63.0,68.0,65.67,1.0,0.24,0.3,0.26,-0.12,-0.08,-0.1,-0.97,-0.95,-0.96,0.0,5.0,4.0
60.0,65.0,62.0,1.0,0.38,0.39,0.39,-0.02,-0.0,-0.01,-0.93,-0.91,-0.92,0.0,5.0,4.0
75.0,78.0,77.0,1.0,0.17,0.18,0.18,0.29,0.31,0.3,-0.94,-0.93,-0.94,0.0,5.0,4.0
75.0,83.0,79.17,1.0,0.17,0.18,0.18,0.29,0.31,0.3,-0.94,-0.93,-0.94,0.0,5.0,4.0
61.0,67.0,64.6,1.0,-0.28,-0.26,-0.27,-0.85,-0.83,-0.84,0.45,0.48,0.46,0.0,5.0,4.0
76.0,80.0,77.4,1.0,0.14,0.15,0.15,0.22,0.24,0.23,-0.97,-0.95,-0.96,0.0,5.0,4.0
61.0,68.0,66.17,1.0,-0.3,-0.27,-0.28,-0.51,-0.48,-0.5,-0.83,-0.81,-0.82,0.0,5.0,4.0
72.0,77.0,73.17,1.0,0.2,0.21,0.2,0.26,0.29,0.28,-0.95,-0.93,-0.94,0.0,5.0,4.0
74.0,77.0,76.0,1.0,0.16,0.17,0.16,0.25,0.27,0.26,-0.96,-0.94,-0.95,0.0,5.0,4.0
59.0,67.0,63.33,1.03,-1.35,0.37,-0.42,-2.71,0.33,-0.42,-2.81,0.29,-0.76,0.0,0.0,4.0
63.0,69.0,65.33,1.0,-0.28,-0.26,-0.27,-0.88,-0.86,-0.87,0.4,0.42,0.41,0.0,5.0,4.0
65.0,69.0,68.0,1.0,-0.28,-0.26,-0.27,-0.85,-0.83,-0.84,0.46,0.47,0.47,0.0,5.0,4.0
61.0,63.0,62.33,1.0,-0.33,-0.25,-0.28,-0.56,-0.46,-0.48,-0.85,-0.79,-0.83,0.0,5.0,4.0
62.0,65.0,62.5,1.0,-0.36,-0.34,-0.35,-0.49,-0.47,-0.48,-0.81,-0.79,-0.8,0.0,5.0,4.0
68.0,92.0,79.17,1.0,-0.17,-0.16,-0.17,-0.91,-0.9,-0.91,0.37,0.39,0.38,0.0,5.0,4.0
58.0,59.0,58.6,1.0,-0.19,-0.16,-0.18,-0.01,0.04,0.02,-0.99,-0.97,-0.98,0.0,0.0,4.0
62.0,68.0,63.0,1.0,-0.13,-0.11,-0.12,-0.24,-0.22,-0.23,-0.97,-0.95,-0.96,1.0,2.0,4.0
67.0,71.0,69.0,1.0,-0.2,-0.19,-0.2,0.06,0.09,0.08,-0.99,-0.96,-0.98,1.0,2.0,4.0
60.0,70.0,63.5,1.0,-0.07,-0.06,-0.07,0.84,0.85,0.84,-0.54,-0.53,-0.53,1.0,2.0,4.0
71.0,79.0,75.17,1.0,-0.18,-0.17,-0.18,0.1,0.14,0.12,-0.98,-0.96,-0.98,1.0,2.0,4.0
74.0,76.0,75.0,1.0,-0.19,-0.17,-0.18,0.09,0.13,0.11,-0.99,-0.96,-0.98,1.0,2.0,4.0
64.0,66.0,65.0,1.0,0.58,0.59,0.58,-0.81,-0.8,-0.8,0.08,0.09,0.09,1.0,2.0,4.0
68.0,71.0,69.2,1.0,0.29,0.52,0.35,-1.04,-0.8,-0.93,-0.11,0.16,0.04,1.0,2.0,4.0
65.0,65.0,65.0,1.0,-0.15,-0.14,-0.15,-0.75,-0.72,-0.74,0.65,0.66,0.66,1.0,1.0,4.0
63.0,65.0,63.67,1.0,-0.24,-0.22,-0.23,-0.21,-0.18,-0.19,-0.96,-0.94,-0.95,1.0,2.0,4.0
62.0,70.0,65.17,1.0,-0.23,-0.22,-0.23,-0.2,-0.18,-0.19,-0.96,-0.94,-0.95,1.0,2.0,4.0
69.0,71.0,70.5,1.0,-0.19,-0.17,-0.18,0.1,0.13,0.12,-0.99,-0.96,-0.98,1.0,2.0,4.0
62.0,68.0,64.17,1.0,-0.13,-0.11,-0.12,-0.25,-0.22,-0.23,-0.97,-0.95,-0.96,1.0,2.0,4.0
63.0,68.0,65.2,1.0,0.38,0.39,0.38,-0.93,-0.91,-0.92,-0.08,-0.07,-0.07,1.0,3.0,4.0
77.0,83.0,80.33,1.0,-0.58,0.37,0.01,-1.21,0.3,0.11,-1.09,1.42,-0.82,1.0,1.0,4.0
64.0,68.0,66.17,1.0,-0.22,-0.2,-0.21,-0.0,0.03,0.01,-0.99,-0.96,-0.98,1.0,3.0,4.0
63.0,66.0,64.2,1.0,0.39,0.4,0.4,-0.92,-0.91,-0.91,-0.07,-0.06,-0.07,1.0,3.0,4.0
62.0,66.0,64.33,1.01,-0.86,1.31,-0.01,-1.23,1.11,-0.12,-1.44,0.77,-0.64,1.0,3.0,4.0
65.0,67.0,66.17,1.0,-0.21,-0.17,-0.18,-0.66,-0.6,-0.65,0.7,0.76,0.74,1.0,2.0,4.0
69.0,69.0,69.0,1.0,-0.21,-0.19,-0.2,-0.03,0.01,-0.0,-0.99,-0.97,-0.98,1.0,3.0,4.0
73.0,77.0,75.67,1.0,-0.17,-0.13,-0.15,-0.47,-0.39,-0.42,-0.91,-0.88,-0.89,1.0,2.0,4.0
64.0,65.0,64.17,1.0,-0.24,-0.22,-0.23,-0.2,-0.17,-0.19,-0.96,-0.94,-0.95,1.0,2.0,4.0
62.0,64.0,63.0,1.0,-0.2,-0.18,-0.19,-0.72,-0.7,-0.7,0.68,0.69,0.68,1.0,2.0,4.0
63.0,63.0,63.0,1.0,-0.24,-0.22,-0.23,-0.2,-0.17,-0.18,-0.96,-0.94,-0.95,1.0,2.0,4.0
66.0,67.0,66.67,1.0,-0.21,-0.2,-0.2,-0.0,0.03,0.01,-0.99,-0.97,-0.98,1.0,3.0,4.0
68.0,70.0,69.0,1.0,0.36,0.37,0.36,-0.94,-0.92,-0.93,0.01,0.03,0.02,1.0,2.0,4.0
63.0,64.0,63.83,1.0,-0.13,-0.11,-0.12,-0.24,-0.21,-0.23,-0.97,-0.95,-0.96,1.0,2.0,4.0
68.0,69.0,68.2,1.0,-0.32,-0.31,-0.31,-0.79,-0.79,-0.79,0.52,0.53,0.53,0.0,5.0,8.0
83.0,103.0,94.33,1.0,0.51,0.52,0.51,0.28,0.29,0.29,-0.81,-0.8,-0.81,0.0,5.0,8.0
71.0,76.0,72.6,1.0,-0.32,-0.31,-0.31,-0.79,-0.78,-0.79,0.52,0.53,0.53,0.0,5.0,8.0
65.0,70.0,67.67,1.0,-0.15,0.7,0.18,-0.13,0.54,0.32,-1.14,-0.55,-0.87,0.0,0.0,8.0
65.0,69.0,67.0,1.0,-0.32,-0.31,-0.31,-0.79,-0.78,-0.79,0.52,0.53,0.52,0.0,5.0,8.0
68.0,70.0,69.0,1.0,0.51,0.52,0.51,0.29,0.3,0.29,-0.81,-0.8,-0.81,0.0,5.0,8.0
69.0,69.0,69.0,0.99,-0.86,-0.85,-0.86,-0.13,-0.12,-0.12,-0.5,-0.48,-0.49,0.0,5.0,8.0
66.0,75.0,69.5,1.0,0.47,0.77,0.55,-0.28,0.53,0.21,-1.2,-0.43,-0.79,0.0,0.0,8.0
63.0,68.0,65.17,1.0,-0.32,-0.31,-0.32,-0.79,-0.78,-0.79,0.52,0.53,0.52,0.0,5.0,8.0
76.0,93.0,80.0,1.0,0.51,0.52,0.51,0.28,0.29,0.29,-0.81,-0.8,-0.81,0.0,5.0,8.0
72.0,77.0,75.67,1.0,0.38,0.39,0.39,0.4,0.42,0.41,-0.83,-0.81,-0.82,0.0,5.0,8.0
61.0,74.0,65.67,1.0,0.48,0.5,0.49,0.19,0.2,0.19,-0.86,-0.84,-0.85,0.0,0.0,8.0
68.0,71.0,68.5,0.99,-0.86,-0.85,-0.86,-0.13,-0.12,-0.12,-0.5,-0.48,-0.49,0.0,5.0,8.0
68.0,72.0,69.8,1.0,0.39,0.4,0.4,0.38,0.4,0.39,-0.83,-0.82,-0.82,0.0,5.0,8.0
63.0,64.0,63.67,1.0,0.45,0.5,0.49,0.21,0.26,0.25,-0.84,-0.82,-0.83,1.0,2.0,8.0
68.0,74.0,70.83,1.0,0.51,0.53,0.52,0.25,0.26,0.26,-0.82,-0.8,-0.81,1.0,3.0,8.0
59.0,60.0,59.14,1.0,0.56,0.58,0.57,0.16,0.17,0.16,-0.81,-0.8,-0.8,1.0,2.0,8.0
60.0,67.0,63.17,1.0,0.55,0.67,0.57,0.1,0.17,0.15,-0.83,-0.77,-0.8,1.0,1.0,8.0
65.0,68.0,67.0,1.0,0.5,0.52,0.51,0.15,0.16,0.16,-0.85,-0.83,-0.84,1.0,2.0,8.0
68.0,69.0,68.17,1.0,-0.99,-0.76,-0.84,-0.29,0.11,-0.16,-0.62,-0.25,-0.5,1.0,2.0,8.0
63.0,64.0,63.17,1.0,-0.3,-0.29,-0.29,-0.78,-0.77,-0.78,0.55,0.55,0.55,1.0,1.0,8.0
68.0,72.0,69.5,1.0,0.5,0.52,0.51,0.15,0.16,0.16,-0.85,-0.83,-0.84,1.0,3.0,8.0
67.0,71.0,69.5,1.0,0.6,0.62,0.6,0.48,0.5,0.49,-0.63,-0.61,-0.62,1.0,2.0,8.0
64.0,67.0,65.67,1.0,0.7,0.71,0.7,-0.04,-0.03,-0.03,-0.71,-0.69,-0.71,1.0,3.0,8.0
70.0,71.0,70.67,1.0,0.51,0.55,0.52,0.26,0.29,0.27,-0.82,-0.78,-0.81,1.0,2.0,8.0
64.0,64.0,64.0,1.0,-0.3,-0.29,-0.3,-0.78,-0.77,-0.77,0.55,0.56,0.56,1.0,2.0,8.0
67.0,68.0,67.67,1.0,-0.31,-0.31,-0.31,-0.79,-0.79,-0.79,0.52,0.53,0.53,1.0,2.0,8.0
62.0,68.0,64.67,1.0,-0.31,-0.31,-0.31,-0.79,-0.78,-0.79,0.52,0.53,0.53,1.0,2.0,8.0
55.0,65.0,61.0,1.0,0.7,0.71,0.7,-0.04,-0.03,-0.03,-0.71,-0.7,-0.71,1.0,3.0,8.0
61.0,61.0,61.0,1.0,0.56,0.58,0.57,0.12,0.14,0.13,-0.82,-0.8,-0.81,1.0,2.0,8.0
66.0,68.0,66.67,1.0,0.62,0.65,0.63,0.13,0.18,0.14,-0.77,-0.73,-0.76,1.0,2.0,8.0
68.0,79.0,70.5,1.0,0.6,0.61,0.6,0.48,0.5,0.49,-0.64,-0.62,-0.63,1.0,2.0,8.0
68.0,69.0,68.6,1.0,0.5,0.52,0.51,0.29,0.3,0.29,-0.81,-0.8,-0.81,1.0,1.0,8.0
72.0,75.0,73.33,1.0,0.51,0.53,0.52,0.25,0.26,0.26,-0.82,-0.8,-0.81,1.0,3.0,8.0
61.0,63.0,62.0,1.0,0.56,0.58,0.57,0.16,0.18,0.17,-0.81,-0.79,-0.8,1.0,2.0,8.0
65.0,68.0,66.17,0.99,-0.04,-0.03,-0.04,-0.44,-0.43,-0.43,-0.9,-0.89,-0.89,0.0,5.0,20.0
72.0,74.0,73.0,1.0,-0.12,-0.11,-0.12,0.25,0.26,0.25,-0.96,-0.95,-0.96,0.0,5.0,20.0
73.0,73.0,73.0,1.0,-0.12,-0.11,-0.11,0.24,0.26,0.25,-0.96,-0.95,-0.96,0.0,5.0,20.0
63.0,63.0,63.0,0.99,-0.06,-0.05,-0.06,-0.36,-0.35,-0.35,-0.93,-0.92,-0.93,0.0,0.0,20.0
72.0,73.0,72.4,0.99,-0.13,-0.11,-0.12,-0.16,-0.12,-0.14,-0.99,-0.97,-0.98,0.0,0.0,20.0
64.0,65.0,64.33,0.99,-0.11,-0.1,-0.11,-0.18,-0.18,-0.18,-0.97,-0.97,-0.97,0.0,5.0,20.0
61.0,63.0,61.83,1.0,-0.94,0.05,-0.13,-0.5,0.3,-0.15,-1.23,0.06,-0.94,0.0,0.0,20.0
65.0,66.0,65.83,0.99,-0.17,-0.07,-0.1,-0.35,-0.2,-0.32,-0.98,-0.88,-0.93,0.0,0.0,20.0
63.0,65.0,64.0,0.99,-0.04,-0.03,-0.03,-0.43,-0.43,-0.43,-0.9,-0.89,-0.89,0.0,5.0,20.0
63.0,65.0,64.0,0.99,-0.04,-0.03,-0.03,-0.44,-0.43,-0.43,-0.9,-0.89,-0.89,0.0,0.0,20.0
60.0,61.0,60.4,0.99,-0.06,-0.06,-0.06,-0.35,-0.34,-0.34,-0.93,-0.93,-0.93,0.0,0.0,20.0
64.0,65.0,64.5,0.99,-0.11,-0.1,-0.11,-0.18,-0.18,-0.18,-0.97,-0.97,-0.97,0.0,5.0,20.0
61.0,61.0,61.0,0.99,-0.06,-0.06,-0.06,-0.36,-0.35,-0.36,-0.93,-0.92,-0.93,0.0,5.0,20.0
61.0,62.0,61.33,0.99,-0.07,-0.06,-0.06,-0.35,-0.34,-0.34,-0.93,-0.93,-0.93,0.0,0.0,20.0
63.0,66.0,64.4,0.99,-0.11,-0.1,-0.11,-0.2,-0.19,-0.2,-0.97,-0.97,-0.97,0.0,5.0,20.0
64.0,68.0,64.8,0.99,-0.11,-0.11,-0.11,-0.18,-0.18,-0.18,-0.97,-0.97,-0.97,0.0,5.0,20.0
63.0,65.0,64.17,1.0,-0.12,-0.11,-0.11,0.21,0.4,0.24,-0.97,-0.93,-0.96,0.0,5.0,20.0
72.0,77.0,75.0,1.0,-0.12,-0.11,-0.11,0.25,0.25,0.25,-0.96,-0.95,-0.96,0.0,5.0,20.0
64.0,66.0,65.2,0.99,-0.11,-0.11,-0.11,-0.18,-0.18,-0.18,-0.97,-0.97,-0.97,0.0,5.0,20.0
67.0,68.0,67.8,0.99,-0.04,-0.04,-0.04,-0.38,-0.37,-0.37,-0.92,-0.92,-0.92,1.0,3.0,20.0
65.0,71.0,66.5,0.99,0.07,0.08,0.07,-0.57,-0.56,-0.57,-0.82,-0.81,-0.81,1.0,2.0,20.0
63.0,65.0,64.17,0.99,-0.1,-0.1,-0.1,-0.07,-0.06,-0.06,-0.99,-0.98,-0.99,1.0,2.0,20.0
68.0,70.0,69.0,0.99,-0.1,-0.09,-0.09,-0.12,-0.11,-0.12,-0.99,-0.98,-0.98,1.0,1.0,20.0
68.0,69.0,68.33,0.99,-0.11,-0.1,-0.1,-0.21,-0.2,-0.2,-0.97,-0.96,-0.97,1.0,2.0,20.0
69.0,73.0,70.83,0.99,0.07,0.08,0.07,-0.57,-0.56,-0.57,-0.82,-0.81,-0.81,1.0,2.0,20.0
67.0,67.0,67.0,0.99,-0.06,-0.05,-0.05,-0.36,-0.36,-0.36,-0.93,-0.92,-0.92,1.0,2.0,20.0
67.0,68.0,67.83,1.0,-0.18,-0.17,-0.18,0.51,0.51,0.51,-0.84,-0.84,-0.84,1.0,2.0,20.0
64.0,68.0,66.67,0.99,-0.04,-0.04,-0.04,-0.38,-0.38,-0.38,-0.92,-0.91,-0.92,1.0,2.0,20.0
63.0,65.0,64.2,0.99,-0.06,-0.05,-0.05,-0.36,-0.36,-0.36,-0.93,-0.92,-0.92,1.0,2.0,20.0
59.0,76.0,65.8,0.99,0.1,0.11,0.11,-0.65,-0.64,-0.64,-0.75,-0.75,-0.75,1.0,2.0,20.0
65.0,77.0,70.83,0.99,-0.05,-0.04,-0.04,-0.38,-0.37,-0.38,-0.92,-0.91,-0.92,1.0,3.0,20.0
66.0,70.0,67.4,0.99,-0.1,-0.09,-0.1,-0.12,-0.11,-0.11,-0.99,-0.98,-0.98,1.0,1.0,20.0
66.0,66.0,66.0,0.99,-0.11,-0.1,-0.1,-0.21,-0.2,-0.2,-0.97,-0.96,-0.97,1.0,2.0,20.0
69.0,69.0,69.0,1.0,-0.18,-0.17,-0.17,0.51,0.52,0.52,-0.84,-0.83,-0.84,1.0,2.0,20.0
58.0,61.0,59.17,1.0,-0.14,-0.13,-0.13,-0.96,-0.96,-0.96,-0.24,-0.22,-0.23,0.0,5.0,16.0
64.0,64.0,64.0,0.99,-0.5,-0.49,-0.5,0.22,0.23,0.22,-0.83,-0.83,-0.83,0.0,5.0,16.0
60.0,61.0,60.17,1.0,-0.14,-0.13,-0.13,-0.96,-0.96,-0.96,-0.23,-0.22,-0.23,0.0,5.0,16.0
63.0,64.0,63.4,0.99,-0.26,-0.25,-0.25,-0.86,-0.85,-0.85,-0.45,-0.43,-0.44,0.0,0.0,16.0
63.0,64.0,63.83,1.0,-0.14,-0.13,-0.14,-0.96,-0.95,-0.96,-0.24,-0.23,-0.24,0.0,0.0,16.0
55.0,60.0,56.2,0.99,0.1,0.1,0.1,0.17,0.18,0.18,-0.98,-0.97,-0.97,0.0,0.0,16.0
59.0,59.0,59.0,0.99,0.1,0.1,0.1,0.17,0.18,0.18,-0.98,-0.97,-0.97,0.0,0.0,16.0
63.0,63.0,63.0,1.0,-0.46,-0.01,-0.16,-1.24,-0.18,-0.93,-0.93,0.14,-0.17,1.0,2.0,16.0
62.0,65.0,63.0,0.99,-0.5,-0.49,-0.5,0.22,0.23,0.22,-0.84,-0.83,-0.83,1.0,2.0,16.0
61.0,69.0,63.8,0.99,-0.5,-0.49,-0.5,0.21,0.23,0.22,-0.83,-0.82,-0.83,1.0,2.0,16.0
62.0,63.0,62.71,1.0,-0.04,-0.03,-0.03,0.86,0.87,0.87,-0.49,-0.48,-0.49,1.0,2.0,16.0
58.0,62.0,60.0,0.99,-0.5,-0.49,-0.5,0.21,0.22,0.22,-0.83,-0.83,-0.83,1.0,3.0,16.0
62.0,63.0,62.5,0.99,-0.41,-0.4,-0.41,-0.36,-0.34,-0.35,-0.84,-0.83,-0.83,1.0,2.0,16.0
62.0,63.0,62.33,1.0,-0.12,-0.11,-0.11,-0.97,-0.96,-0.97,-0.2,-0.19,-0.2,1.0,2.0,16.0
61.0,62.0,61.17,0.99,0.1,0.1,0.1,0.17,0.18,0.18,-0.98,-0.97,-0.97,1.0,2.0,16.0
64.0,65.0,64.83,0.99,-0.41,-0.4,-0.41,-0.36,-0.34,-0.35,-0.84,-0.83,-0.84,1.0,3.0,16.0
64.0,65.0,64.5,0.99,0.07,0.07,0.07,0.43,0.44,0.44,-0.89,-0.88,-0.89,1.0,2.0,16.0
65.0,67.0,66.33,0.99,0.07,0.08,0.07,0.43,0.43,0.43,-0.9,-0.89,-0.89,1.0,3.0,16.0
63.0,64.0,63.4,1.0,-0.05,-0.03,-0.03,0.86,0.89,0.87,-0.51,-0.48,-0.49,1.0,2.0,16.0
63.0,64.0,63.8,1.0,-0.21,-0.21,-0.21,0.91,0.92,0.92,0.33,0.34,0.33,1.0,1.0,16.0
63.0,65.0,63.83,0.99,-0.41,-0.4,-0.41,-0.36,-0.34,-0.35,-0.84,-0.83,-0.83,1.0,2.0,16.0
63.0,65.0,64.33,0.99,-0.41,-0.4,-0.41,-0.36,-0.34,-0.35,-0.84,-0.83,-0.83,1.0,3.0,16.0
58.0,59.0,58.25,0.99,0.1,0.11,0.1,0.17,0.18,0.18,-0.97,-0.97,-0.97,1.0,1.0,16.0
68.0,69.0,68.17,1.0,-0.48,-0.46,-0.47,0.16,0.18,0.17,-0.88,-0.86,-0.87,0.0,0.0,2.0
69.0,72.0,70.83,1.0,-0.46,-0.46,-0.46,0.05,0.06,0.05,-0.89,-0.88,-0.89,0.0,5.0,2.0
67.0,67.0,67.0,1.0,-0.32,-0.31,-0.32,0.1,0.1,0.1,-0.95,-0.94,-0.95,0.0,5.0,2.0
78.0,79.0,78.33,1.0,-0.3,-0.28,-0.29,0.01,0.02,0.02,0.94,0.96,0.96,0.0,0.0,2.0
68.0,68.0,68.0,1.0,-0.38,-0.34,-0.37,0.36,0.43,0.41,-0.86,-0.82,-0.83,0.0,5.0,2.0
68.0,74.0,70.33,1.0,-0.47,-0.46,-0.46,0.06,0.07,0.06,-0.89,-0.88,-0.89,0.0,5.0,2.0
65.0,68.0,67.0,1.0,-0.38,-0.33,-0.36,-0.83,0.27,-0.19,-0.95,-0.54,-0.9,0.0,5.0,2.0
68.0,69.0,68.5,1.0,0.59,0.6,0.6,-0.77,-0.77,-0.77,-0.25,-0.24,-0.24,0.0,0.0,2.0
72.0,76.0,74.0,1.0,-0.47,-0.47,-0.47,-0.05,-0.04,-0.04,-0.89,-0.88,-0.88,0.0,5.0,2.0
69.0,72.0,70.0,1.0,-0.45,-0.43,-0.44,-0.1,-0.03,-0.05,-0.91,-0.89,-0.9,0.0,0.0,2.0
69.0,74.0,72.17,1.0,-0.43,-0.41,-0.42,0.14,0.19,0.17,-0.91,-0.89,-0.89,0.0,5.0,2.0
73.0,81.0,77.0,1.0,-0.42,-0.39,-0.42,0.16,0.37,0.18,-0.9,-0.85,-0.89,0.0,5.0,2.0
71.0,73.0,72.17,1.0,-0.47,-0.43,-0.46,0.14,0.18,0.17,-0.92,-0.85,-0.88,0.0,0.0,2.0
65.0,69.0,68.17,1.0,-0.47,-0.44,-0.45,-0.16,-0.06,-0.13,-0.89,-0.86,-0.89,0.0,0.0,2.0
66.0,75.0,71.83,1.01,-1.26,0.09,-0.52,-0.6,0.5,-0.04,-1.01,0.23,-0.82,0.0,5.0,2.0
69.0,71.0,69.6,1.0,-0.44,-0.43,-0.44,0.19,0.22,0.2,-0.91,-0.87,-0.88,0.0,5.0,2.0
69.0,76.0,71.43,1.0,-0.46,-0.45,-0.45,-0.14,-0.11,-0.13,-0.89,-0.88,-0.89,0.0,0.0,2.0
69.0,70.0,69.67,1.0,-0.31,-0.3,-0.3,0.1,0.15,0.11,-0.96,-0.93,-0.95,0.0,5.0,2.0
69.0,74.0,72.17,1.0,-0.46,-0.45,-0.45,0.17,0.18,0.18,-0.88,-0.87,-0.87,0.0,5.0,2.0
71.0,74.0,72.6,1.0,-0.47,-0.46,-0.47,-0.02,-0.01,-0.01,-0.89,-0.88,-0.89,1.0,2.0,2.0
70.0,71.0,70.83,1.0,-0.28,-0.28,-0.28,0.9,0.91,0.9,-0.32,-0.31,-0.32,1.0,3.0,2.0
69.0,73.0,70.83,1.0,-0.29,-0.28,-0.28,0.9,0.91,0.91,-0.31,-0.31,-0.31,1.0,3.0,2.0
71.0,72.0,71.83,1.0,-0.5,-0.45,-0.46,0.25,0.28,0.27,-0.88,-0.83,-0.85,1.0,2.0,2.0
76.0,76.0,76.0,1.0,-0.47,-0.46,-0.47,-0.02,-0.01,-0.01,-0.9,-0.88,-0.89,1.0,2.0,2.0
71.0,73.0,71.83,1.0,-0.48,-0.45,-0.46,0.31,0.34,0.33,-0.84,-0.81,-0.82,1.0,2.0,2.0
67.0,71.0,68.83,1.0,-0.3,-0.29,-0.3,0.92,0.94,0.92,-0.24,-0.22,-0.24,1.0,2.0,2.0
74.0,75.0,74.67,1.0,-0.33,-0.3,-0.32,0.04,0.07,0.05,-1.0,-0.93,-0.95,1.0,2.0,2.0
68.0,68.0,68.0,1.01,-0.52,-0.13,-0.37,-1.02,0.76,-0.12,-1.26,-0.63,-0.92,1.0,2.0,2.0
73.0,77.0,74.33,1.0,-0.54,-0.53,-0.54,0.03,0.05,0.04,-0.85,-0.84,-0.84,1.0,2.0,2.0
67.0,72.0,70.17,1.0,-0.36,-0.29,-0.35,0.09,0.47,0.17,-0.98,-0.78,-0.92,1.0,2.0,2.0
70.0,72.0,71.0,1.0,-0.3,-0.29,-0.29,0.92,0.93,0.92,-0.24,-0.23,-0.23,1.0,2.0,2.0
72.0,76.0,74.5,1.0,-0.27,-0.22,-0.25,-0.06,0.21,0.11,-1.02,-0.74,-0.96,1.0,2.0,2.0
71.0,71.0,71.0,1.0,-0.28,-0.28,-0.28,0.9,0.91,0.9,-0.32,-0.31,-0.32,1.0,3.0,2.0
68.0,68.0,68.0,1.0,-0.38,-0.37,-0.37,-0.16,-0.13,-0.14,-0.93,-0.91,-0.92,1.0,2.0,2.0
67.0,69.0,68.0,1.0,-0.36,-0.3,-0.34,0.14,0.58,0.32,-1.03,-0.79,-0.88,1.0,2.0,2.0
65.0,69.0,67.5,1.0,-0.31,-0.29,-0.3,0.92,0.93,0.93,0.2,0.24,0.21,1.0,1.0,2.0
67.0,68.0,67.33,1.02,-0.28,0.6,0.52,-0.82,0.33,-0.68,-1.6,-0.23,-0.35,1.0,2.0,2.0
65.0,69.0,66.67,1.0,-0.3,-0.29,-0.3,0.92,0.93,0.92,-0.25,-0.24,-0.24,1.0,2.0,2.0
69.0,76.0,73.0,1.0,-0.47,-0.46,-0.47,-0.02,0.02,-0.01,-0.89,-0.88,-0.89,1.0,2.0,2.0
68.0,71.0,69.67,1.0,-0.28,-0.28,-0.28,0.0,0.01,0.01,-0.97,-0.96,-0.96,1.0,2.0,2.0
69.0,70.0,69.4,1.0,-0.54,-0.13,-0.21,-1.16,1.14,-0.3,-0.63,1.07,0.58,1.0,2.0,2.0
71.0,71.0,71.0,1.0,-0.44,-0.43,-0.44,-0.18,-0.16,-0.17,-0.9,-0.88,-0.89,1.0,2.0,2.0
70.0,71.0,70.5,1.0,-0.3,-0.3,-0.3,0.92,0.93,0.92,-0.23,-0.23,-0.23,1.0,3.0,2.0
75.0,75.0,75.0,1.0,-0.47,-0.46,-0.47,-0.02,-0.0,-0.01,-0.9,-0.88,-0.89,1.0,2.0,2.0
74.0,77.0,75.5,1.0,-0.34,-0.3,-0.33,0.01,0.06,0.04,-1.0,-0.9,-0.95,1.0,2.0,2.0
69.0,76.0,72.5,1.0,-0.31,-0.26,-0.28,0.0,0.06,0.04,-0.99,-0.95,-0.96,1.0,2.0,2.0
72.0,74.0,73.0,1.0,-0.53,-0.52,-0.52,-0.01,0.01,0.0,-0.86,-0.85,-0.85,1.0,2.0,2.0
68.0,75.0,71.67,1.0,-0.43,-0.42,-0.42,-0.03,-0.02,-0.02,-0.91,-0.9,-0.91,1.0,2.0,2.0
70.0,76.0,71.67,1.0,-0.48,-0.47,-0.47,-0.06,-0.04,-0.05,-0.89,-0.88,-0.88,1.0,2.0,2.0
63.0,70.0,67.71,1.0,-0.24,-0.23,-0.23,0.14,0.15,0.14,-0.97,-0.96,-0.96,1.0,2.0,2.0
67.0,69.0,67.5,1.0,-0.24,-0.23,-0.24,0.12,0.13,0.13,-0.97,-0.96,-0.96,1.0,2.0,2.0
69.0,72.0,69.83,1.0,-0.46,-0.43,-0.44,-0.18,-0.14,-0.17,-0.9,-0.88,-0.89,1.0,2.0,2.0
76.0,80.0,78.5,0.99,0.04,0.04,0.04,0.35,0.36,0.36,-0.93,-0.92,-0.93,0.0,0.0,24.0
88.0,90.0,89.0,1.0,0.54,0.56,0.55,0.31,0.32,0.31,-0.78,-0.76,-0.77,0.0,5.0,24.0
79.0,80.0,79.33,0.99,0.04,0.04,0.04,0.35,0.36,0.36,-0.93,-0.92,-0.93,0.0,0.0,24.0
77.0,81.0,78.14,1.0,0.04,0.04,0.04,0.36,0.37,0.37,-0.93,-0.92,-0.92,0.0,0.0,24.0
87.0,91.0,89.0,1.0,0.54,0.56,0.55,0.3,0.31,0.3,-0.79,-0.76,-0.78,0.0,5.0,24.0
77.0,79.0,77.6,1.0,0.03,0.04,0.04,0.36,0.37,0.37,-0.93,-0.92,-0.92,0.0,0.0,24.0
77.0,81.0,80.0,0.99,0.04,0.04,0.04,0.35,0.36,0.35,-0.93,-0.93,-0.93,0.0,0.0,24.0
73.0,76.0,74.17,1.0,0.03,0.04,0.04,0.36,0.37,0.36,-0.93,-0.92,-0.93,0.0,0.0,24.0
78.0,82.0,79.67,0.99,-0.05,-0.04,-0.04,0.79,0.81,0.79,-0.61,-0.59,-0.6,0.0,0.0,24.0
85.0,87.0,85.86,0.99,-0.19,-0.19,-0.19,0.49,0.51,0.5,-0.84,-0.83,-0.84,0.0,0.0,24.0
75.0,76.0,75.67,0.99,-0.02,0.06,0.05,0.12,0.18,0.14,-0.99,-0.97,-0.98,0.0,0.0,24.0
78.0,79.0,78.2,0.99,0.04,0.04,0.04,0.35,0.36,0.36,-0.93,-0.92,-0.93,0.0,0.0,24.0
80.0,82.0,80.67,0.99,-0.56,-0.12,-0.25,-0.28,0.84,0.46,-0.94,-0.52,-0.83,0.0,0.0,24.0
85.0,86.0,85.33,0.99,-0.19,-0.19,-0.19,0.5,0.51,0.5,-0.84,-0.83,-0.84,1.0,1.0,24.0
87.0,88.0,87.8,0.99,-0.19,-0.19,-0.19,0.5,0.51,0.5,-0.84,-0.83,-0.84,1.0,2.0,24.0
92.0,93.0,92.67,0.99,-0.15,-0.14,-0.15,0.6,0.61,0.61,-0.78,-0.77,-0.77,1.0,3.0,24.0
84.0,86.0,85.0,0.99,-0.19,-0.19,-0.19,0.5,0.51,0.5,-0.84,-0.83,-0.84,1.0,2.0,24.0
87.0,93.0,90.33,1.0,0.55,0.57,0.56,0.31,0.32,0.32,-0.77,-0.75,-0.77,1.0,3.0,24.0
85.0,91.0,88.17,1.0,0.43,0.44,0.43,0.63,0.65,0.64,-0.64,-0.62,-0.63,1.0,3.0,24.0
94.0,99.0,96.4,1.0,0.42,0.44,0.43,0.63,0.64,0.64,-0.64,-0.63,-0.63,1.0,2.0,24.0
93.0,108.0,100.0,1.0,0.36,0.38,0.37,0.52,0.53,0.52,-0.77,-0.75,-0.76,1.0,3.0,24.0
92.0,95.0,93.8,0.99,-0.15,-0.14,-0.15,0.6,0.61,0.61,-0.78,-0.77,-0.77,1.0,3.0,24.0
67.0,73.0,69.17,1.0,-0.09,-0.08,-0.08,0.76,0.77,0.77,-0.64,-0.63,-0.63,0.0,0.0,29.0
64.0,69.0,65.6,1.0,-0.52,-0.51,-0.51,-0.13,-0.11,-0.12,-0.85,-0.84,-0.84,0.0,5.0,29.0
77.0,80.0,77.8,0.99,-0.66,-0.64,-0.65,-0.22,-0.21,-0.22,-0.73,-0.71,-0.72,0.0,5.0,29.0
68.0,72.0,70.4,1.0,-0.43,-0.4,-0.41,-0.14,-0.11,-0.12,-0.9,-0.88,-0.9,0.0,5.0,29.0
65.0,69.0,67.33,1.0,-0.63,-0.62,-0.62,-0.15,-0.13,-0.14,-0.77,-0.75,-0.76,0.0,0.0,29.0
65.0,68.0,67.2,0.99,-0.72,-0.7,-0.71,-0.1,-0.08,-0.09,-0.7,-0.68,-0.69,0.0,0.0,29.0
61.0,65.0,62.67,1.0,-0.52,-0.51,-0.51,-0.13,-0.11,-0.12,-0.85,-0.84,-0.84,0.0,5.0,29.0
68.0,73.0,70.0,1.0,-0.52,-0.51,-0.51,-0.13,-0.11,-0.12,-0.85,-0.84,-0.84,0.0,5.0,29.0
65.0,69.0,66.2,1.0,-0.42,-0.41,-0.41,-0.13,-0.12,-0.12,-0.9,-0.89,-0.9,0.0,5.0,29.0
73.0,77.0,74.6,1.0,-0.43,-0.42,-0.43,-0.36,-0.35,-0.36,0.82,0.84,0.83,0.0,5.0,29.0
64.0,69.0,65.71,1.0,-0.17,-0.17,-0.17,0.49,0.5,0.5,0.85,0.86,0.85,0.0,5.0,29.0
67.0,69.0,68.33,0.99,-0.58,-0.57,-0.57,-0.46,-0.44,-0.45,-0.69,-0.67,-0.68,0.0,0.0,29.0
65.0,68.0,67.33,0.99,-0.46,-0.45,-0.46,-0.24,-0.23,-0.24,-0.86,-0.85,-0.85,0.0,5.0,29.0
67.0,68.0,67.2,0.99,-0.47,-0.46,-0.46,-0.42,-0.4,-0.41,-0.78,-0.77,-0.78,0.0,5.0,29.0
65.0,67.0,65.4,0.99,-0.58,-0.57,-0.57,-0.46,-0.44,-0.45,-0.69,-0.67,-0.68,0.0,0.0,29.0
68.0,69.0,68.33,1.0,-0.1,-0.1,-0.1,0.23,0.24,0.24,0.97,0.97,0.97,0.0,5.0,29.0
65.0,69.0,67.0,1.0,-0.43,-0.4,-0.41,-0.13,-0.11,-0.12,-0.91,-0.89,-0.9,0.0,5.0,29.0
74.0,82.0,79.0,0.99,-0.43,-0.41,-0.42,-0.81,-0.78,-0.8,-0.43,-0.41,-0.42,0.0,0.0,29.0
69.0,73.0,71.17,1.0,-0.52,-0.51,-0.51,-0.13,-0.11,-0.12,-0.85,-0.84,-0.84,0.0,5.0,29.0
67.0,69.0,68.0,1.0,-0.52,-0.51,-0.51,-0.15,-0.13,-0.14,-0.85,-0.84,-0.84,0.0,5.0,29.0
65.0,68.0,67.0,1.0,-0.2,0.01,-0.07,0.53,0.72,0.56,-0.84,-0.69,-0.82,0.0,5.0,29.0
64.0,67.0,65.67,0.99,-0.58,-0.57,-0.57,-0.46,-0.44,-0.45,-0.69,-0.67,-0.68,0.0,0.0,29.0
64.0,68.0,65.2,1.0,-0.09,-0.08,-0.08,0.54,0.55,0.54,-0.84,-0.83,-0.83,0.0,5.0,29.0
65.0,68.0,66.33,1.0,-0.17,-0.16,-0.17,0.49,0.5,0.5,0.85,0.86,0.86,0.0,5.0,29.0
67.0,68.0,67.67,1.0,-0.12,0.83,-0.11,0.39,0.59,0.4,-0.92,-0.84,-0.91,0.0,0.0,29.0
67.0,76.0,69.2,0.99,-0.58,-0.57,-0.57,-0.46,-0.44,-0.45,-0.69,-0.67,-0.68,0.0,0.0,29.0
64.0,73.0,67.33,1.0,-0.48,-0.46,-0.47,-0.26,-0.24,-0.25,-0.85,-0.83,-0.84,0.0,5.0,29.0
65.0,69.0,66.67,0.99,-0.58,-0.57,-0.57,-0.46,-0.44,-0.45,-0.69,-0.67,-0.68,0.0,0.0,29.0
74.0,76.0,74.8,1.0,-0.44,-0.43,-0.43,-0.4,-0.39,-0.4,0.8,0.82,0.81,0.0,5.0,29.0
69.0,78.0,74.2,1.0,0.02,0.03,0.03,-0.22,-0.21,-0.22,0.97,0.98,0.98,0.0,5.0,29.0
69.0,73.0,70.67,1.0,-0.52,-0.5,-0.51,-0.14,-0.11,-0.12,-0.85,-0.84,-0.84,0.0,5.0,29.0
68.0,81.0,73.0,1.0,-0.11,-0.1,-0.1,0.23,0.24,0.24,0.97,0.97,0.97,0.0,5.0,29.0
65.0,69.0,67.33,0.99,-0.57,-0.51,-0.57,-0.49,-0.44,-0.45,-0.71,-0.65,-0.68,0.0,0.0,29.0
68.0,69.0,68.4,0.99,-0.7,-0.68,-0.69,-0.15,-0.12,-0.14,-0.71,-0.69,-0.7,1.0,1.0,29.0
77.0,77.0,77.0,0.99,-0.7,-0.69,-0.7,-0.18,-0.16,-0.17,-0.69,-0.68,-0.69,1.0,3.0,29.0
63.0,69.0,65.33,1.0,-0.09,-0.07,-0.08,0.73,0.77,0.75,-0.67,-0.64,-0.66,1.0,1.0,29.0
72.0,78.0,75.83,1.0,0.03,0.04,0.03,-0.97,-0.96,-0.96,0.27,0.27,0.27,1.0,3.0,29.0
72.0,77.0,73.83,1.0,-0.29,-0.28,-0.29,0.61,0.62,0.61,-0.74,-0.73,-0.73,1.0,2.0,29.0
59.0,63.0,60.75,1.0,-0.15,-0.14,-0.15,-0.38,-0.31,-0.35,0.92,0.93,0.93,1.0,2.0,29.0
77.0,80.0,78.6,1.0,0.02,0.03,0.03,-0.22,-0.21,-0.22,0.97,0.98,0.98,1.0,1.0,29.0
74.0,77.0,75.83,0.99,-0.6,-0.03,-0.39,-1.02,-0.49,-0.75,-0.87,0.6,-0.29,1.0,2.0,29.0
65.0,69.0,66.83,1.0,-0.15,-0.14,-0.15,-0.36,-0.35,-0.35,0.92,0.93,0.93,1.0,2.0,29.0
72.0,94.0,86.5,1.0,-0.14,-0.13,-0.14,0.44,0.46,0.45,-0.89,-0.87,-0.88,1.0,2.0,29.0
65.0,68.0,66.17,1.0,-0.09,-0.08,-0.09,0.2,0.21,0.21,0.97,0.98,0.98,1.0,2.0,29.0
74.0,76.0,74.33,1.0,-0.3,-0.28,-0.29,0.59,0.64,0.61,-0.75,-0.72,-0.74,1.0,2.0,29.0
62.0,69.0,65.83,0.99,-0.7,-0.69,-0.69,-0.2,-0.18,-0.19,-0.69,-0.68,-0.69,1.0,1.0,29.0
74.0,77.0,75.5,1.0,-0.3,-0.29,-0.29,0.61,0.63,0.62,-0.72,-0.71,-0.72,1.0,2.0,29.0
76.0,77.0,76.6,0.99,-0.7,-0.69,-0.7,-0.18,-0.17,-0.17,-0.69,-0.68,-0.69,1.0,3.0,29.0
74.0,77.0,75.0,1.0,0.02,0.03,0.03,-0.22,-0.21,-0.22,0.97,0.98,0.98,1.0,2.0,29.0
65.0,65.0,65.0,0.99,-0.56,-0.55,-0.56,-0.48,-0.46,-0.47,-0.68,-0.67,-0.68,1.0,1.0,29.0
78.0,80.0,78.33,1.02,-0.22,0.66,0.03,-1.14,-0.13,-0.41,0.06,1.48,0.82,1.0,3.0,29.0
69.0,77.0,72.5,1.0,-0.18,-0.17,-0.17,-0.34,-0.33,-0.34,0.93,0.93,0.93,1.0,2.0,29.0
83.0,83.0,83.0,1.0,-0.4,-0.38,-0.39,0.44,0.53,0.45,-0.82,-0.79,-0.8,1.0,1.0,29.0
73.0,74.0,73.67,1.0,-0.42,-0.41,-0.41,0.56,0.57,0.57,-0.71,-0.7,-0.71,1.0,2.0,29.0
64.0,65.0,64.67,0.99,-0.58,-0.57,-0.57,-0.46,-0.44,-0.45,-0.69,-0.67,-0.68,1.0,1.0,29.0
